thisN,thisTrialN,thisRepN,conditions_practice,ISI_practice,keyPractice.keys,keyPractice.rt,keyPractice.duration,elementMotionDemo.thisRepN,elementMotionDemo.thisTrialN,elementMotionDemo.thisN,elementMotionDemo.thisIndex,groupMotionDemo.thisRepN,groupMotionDemo.thisTrialN,groupMotionDemo.thisN,groupMotionDemo.thisIndex,practiceLoop.thisRepN,practiceLoop.thisTrialN,practiceLoop.thisN,practiceLoop.thisIndex,thisRow.t,notes,InstructionScreen.started,textInstructions.started,keyInstructionContinue.started,keyInstructionContinue.keys,keyInstructionContinue.rt,keyInstructionContinue.duration,InstructionScreen.stopped,ElementExampleFrame1.started,ternusExampleLeft.started,ternusExampleMiddle.started,ternusExampleRight.started,FixationCrossExample.started,ternusExampleLeft.stopped,ternusExampleMiddle.stopped,ternusExampleRight.stopped,FixationCrossExample.stopped,ElementExampleFrame1.stopped,ElementExampleFrame2.started,ternusExampleLeft_2.started,ternusExampleMiddle_2.started,ternusExampleRight_2.started,FixationCrossExample_2.started,ternusExampleLeft_2.stopped,ternusExampleMiddle_2.stopped,ternusExampleRight_2.stopped,FixationCrossExample_2.stopped,ElementExampleFrame2.stopped,blank800.started,FixationCrossBlank800.started,FixationCrossBlank800.stopped,blank800.stopped,elementMotionExplained.started,textElementMotion.started,keyElementMotionExplained.started,elementMotionExplained.stopped,keyElementMotionExplained.keys,keyElementMotionExplained.rt,keyElementMotionExplained.duration,blank160.started,FixationCrossBlank160.started,FixationCrossBlank160.stopped,blank160.stopped,groupMotionExplained.started,textGroupMotion.started,keyGroupMotionExplained.started,groupMotionExplained.stopped,keyGroupMotionExplained.keys,keyGroupMotionExplained.rt,keyGroupMotionExplained.duration,causalColor,practiceFrame1.started,ternusObjLeftPrac.started,ternusObjMiddlePrac.started,ternusObjRightPrac.started,FixationCrossPrac.started,portalLeftPrac.started,portalRightPrac.started,BarrierPrac.started,ternusObjLeftPrac.stopped,ternusObjMiddlePrac.stopped,ternusObjRightPrac.stopped,FixationCrossPrac.stopped,portalLeftPrac.stopped,portalRightPrac.stopped,BarrierPrac.stopped,practiceFrame1.stopped,blankISI_Practice.started,FixationCrossBlankPractice.started,FixationCrossBlankPractice.stopped,blankISI_Practice.stopped,practiceFrame2.started,keyPractice.started,ternusObjLeftPrac_2.started,ternusObjMiddlePrac_2.started,ternusObjRightPrac_2.started,FixationCrossPrac_2.started,portalLeftPrac_2.started,portalRightPrac_2.started,BarrierPrac_2.started,ternusObjLeftPrac_2.stopped,ternusObjMiddlePrac_2.stopped,ternusObjRightPrac_2.stopped,portalLeftPrac_2.stopped,portalRightPrac_2.stopped,BarrierPrac_2.stopped,practiceFrame2.stopped,practiceLoop.keyPractice.keys,practiceLoop.keyPractice.rt,practiceLoop.keyPractice.duration,StartScreen.started,textStartMessage.started,keyStart.started,participant,session,date,expName,expVersion,psychopyVersion,frameRate,expStart,
,,,,,,,,,,,,,,,,,,,,,,0.003245500032790005,0.007061699987389147,0.9986212000367232,space,4.483230499958154,None,5.4938611999969,,,,,,,,,,,,,,,,,,,,,,,,,,,,,,,,,,,,,,,,,,,,,,,,,,,,,,,,,,,,,,,,,,,,,,,,,,,,,,,,,,,,,,,001,2026-06-16_18h06.02.071,Teamprojekt,,2025.1.0,89.81861129262573,2026-06-16 18h06.06.614392 +0200,
0,0,0,,,,,,0,0,0,0,,,,,,,,,5.501597299997229,,,,,,,,,5.494212799996603,5.501597299997229,5.501597299997229,5.501597299997229,5.501597299997229,5.699441300006583,5.699441300006583,5.699441300006583,5.699441300006583,5.688440099998843,5.688496800023131,5.699441300006583,5.699441300006583,5.699441300006583,5.699441300006583,5.898347800015472,5.898347800015472,5.898347800015472,5.898347800015472,5.8878202000050806,5.887869600031991,5.898347800015472,6.699220400012564,6.687720299989451,,,,,,,,,,,,,,,,,,,,,,,,,,,,,,,,,,,,,,,,,,,,,,,,,,,,,,,,,,,,,,,001,2026-06-16_18h06.02.071,Teamprojekt,,2025.1.0,89.81861129262573,2026-06-16 18h06.06.614392 +0200,
1,0,1,,,,,,1,0,1,0,,,,,,,,,6.699220400012564,,,,,,,,,6.687892000016291,6.699220400012564,6.699220400012564,6.699220400012564,6.699220400012564,6.8999157000216655,6.8999157000216655,6.8999157000216655,6.8999157000216655,6.887682200002018,6.887723400024697,6.8999157000216655,6.8999157000216655,6.8999157000216655,6.8999157000216655,7.099188900028821,7.099188900028821,7.099188900028821,7.099188900028821,7.088325100019574,7.088366400043014,7.099188900028821,7.898252499988303,7.887807500024792,,,,,,,,,,,,,,,,,,,,,,,,,,,,,,,,,,,,,,,,,,,,,,,,,,,,,,,,,,,,,,,001,2026-06-16_18h06.02.071,Teamprojekt,,2025.1.0,89.81861129262573,2026-06-16 18h06.06.614392 +0200,
2,0,2,,,,,,2,0,2,0,,,,,,,,,7.898252499988303,,,,,,,,,7.887939600041136,7.898252499988303,7.898252499988303,7.898252499988303,7.898252499988303,8.098239200015087,8.098239200015087,8.098239200015087,8.098239200015087,8.088529800006654,8.088578700029757,8.098239200015087,8.098239200015087,8.098239200015087,8.098239200015087,8.29825560003519,8.29825560003519,8.29825560003519,8.29825560003519,8.287265399994794,8.28729690000182,8.29825560003519,,9.0884350000415,,,,,,,,,,,,,,,,,,,,,,,,,,,,,,,,,,,,,,,,,,,,,,,,,,,,,,,,,,,,,,,001,2026-06-16_18h06.02.071,Teamprojekt,,2025.1.0,89.81861129262573,2026-06-16 18h06.06.614392 +0200,
3,0,3,,,,,,3,0,3,0,,,,,,,,,9.098203600035049,,,,,,,,,9.088668200012762,9.098203600035049,9.098203600035049,9.098203600035049,9.098203600035049,9.298147000023164,9.298147000023164,9.298147000023164,9.298147000023164,9.288166699989233,9.288210900034755,9.298147000023164,9.298147000023164,9.298147000023164,9.298147000023164,9.498159000009764,9.498159000009764,9.498159000009764,9.498159000009764,9.488203799992334,9.488237600016873,9.498159000009764,10.298467300017364,10.28776450001169,,,,,,,,,,,,,,,,,,,,,,,,,,,,,,,,,,,,,,,,,,,,,,,,,,,,,,,,,,,,,,,001,2026-06-16_18h06.02.071,Teamprojekt,,2025.1.0,89.81861129262573,2026-06-16 18h06.06.614392 +0200,
,,,,,,,,,,,,,,,,,,,,,,,,,,,,,,,,,,,,,,,,,,,,,,,,,,,,,10.287906699988525,10.298467300017364,10.787772200012114,21.199416299990844,space,10.410758199985139,None,,,,,,,,,,,,,,,,,,,,,,,,,,,,,,,,,,,,,,,,,,,,,,,,,,,,,,,,001,2026-06-16_18h06.02.071,Teamprojekt,,2025.1.0,89.81861129262573,2026-06-16 18h06.06.614392 +0200,
0,0,0,,,,,,,,,,0,0,0,0,,,,,21.209095300000627,,,,,,,,,21.199732100008987,21.209095300000627,21.209095300000627,21.209095300000627,21.209095300000627,21.409352999995463,21.409352999995463,21.409352999995463,21.409352999995463,21.398040500003844,21.553432999993674,21.564456499996595,21.564456499996595,21.564456499996595,21.564456499996595,21.7646434000344,21.7646434000344,21.7646434000344,21.7646434000344,21.7545435000211,21.754580400011037,21.7646434000344,,22.555006400041748,,,,,,,,21.39808479999192,21.409352999995463,21.564456499996595,21.553387299994938,,,,,,,,,,,,,,,,,,,,,,,,,,,,,,,,,,,,,,,,,,,,,,,,,,,,001,2026-06-16_18h06.02.071,Teamprojekt,,2025.1.0,89.81861129262573,2026-06-16 18h06.06.614392 +0200,
1,0,1,,,,,,,,,,1,0,1,0,,,,,22.564294400042854,,,,,,,,,22.555235400039237,22.564294400042854,22.564294400042854,22.564294400042854,22.564294400042854,22.765082700003404,22.765082700003404,22.765082700003404,22.765082700003404,22.753767299989704,22.90942909999285,22.91967690002639,22.91967690002639,22.91967690002639,22.91967690002639,23.12073910003528,23.12073910003528,23.12073910003528,23.12073910003528,23.10869790002471,23.10872990003554,23.12073910003528,,23.9096414000378,,,,,,,,22.753813199989963,22.765082700003404,22.91967690002639,22.90939620003337,,,,,,,,,,,,,,,,,,,,,,,,,,,,,,,,,,,,,,,,,,,,,,,,,,,,001,2026-06-16_18h06.02.071,Teamprojekt,,2025.1.0,89.81861129262573,2026-06-16 18h06.06.614392 +0200,
2,0,2,,,,,,,,,,2,0,2,0,,,,,23.919611599994823,,,,,,,,,23.90985160000855,23.919611599994823,23.919611599994823,23.919611599994823,23.919611599994823,24.120568600017577,24.120568600017577,24.120568600017577,24.120568600017577,24.109719800006133,24.264673200028483,24.276119499991182,24.276119499991182,24.276119499991182,24.276119499991182,24.476118999999017,24.476118999999017,24.476118999999017,24.476118999999017,24.465290300024208,24.465340199996717,24.476118999999017,25.275224399985746,25.265133500040974,,,,,,,,24.10976500000106,24.120568600017577,24.276119499991182,24.264602300012484,,,,,,,,,,,,,,,,,,,,,,,,,,,,,,,,,,,,,,,,,,,,,,,,,,,,001,2026-06-16_18h06.02.071,Teamprojekt,,2025.1.0,89.81861129262573,2026-06-16 18h06.06.614392 +0200,
3,0,3,,,,,,,,,,3,0,3,0,,,,,25.275224399985746,,,,,,,,,25.265339600038715,25.275224399985746,25.275224399985746,25.275224399985746,25.275224399985746,25.475339600001462,25.475339600001462,25.475339600001462,25.475339600001462,25.465216300042812,25.62077209999552,25.631113000039477,25.631113000039477,25.631113000039477,25.631113000039477,25.831903300015256,25.831903300015256,25.831903300015256,25.831903300015256,25.82074890000513,25.82079780002823,25.831903300015256,26.631153900001664,26.620669100026134,,,,,,,,25.465273900015745,25.475339600001462,25.631113000039477,25.620721200015396,,,,,,,,,,,,,,,,,,,,,,,,,,,,,,,,,,,,,,,,,,,,,,,,,,,,001,2026-06-16_18h06.02.071,Teamprojekt,,2025.1.0,89.81861129262573,2026-06-16 18h06.06.614392 +0200,
,,,,,,,,,,,,,,,,,,,,,,,,,,,,,,,,,,,,,,,,,,,,,,,,,,,,,,,,,,,,,,,,26.620798000018112,26.631153900001664,27.11950239998987,57.75148660002742,space,30.629985000006855,None,,,,,,,,,,,,,,,,,,,,,,,,,,,,,,,,,,,,,,,,,,,,,001,2026-06-16_18h06.02.071,Teamprojekt,,2025.1.0,89.81861129262573,2026-06-16 18h06.06.614392 +0200,
0,0,0,Standard,0.16,f,1.750748599995859,None,,,,,,,,,0,0,0,11,57.76639460003935,,,,,,,,,,,,,,,,,,,,,,,,,,,,,59.87470859999303,59.88538650004193,60.6844015000388,60.67417670000577,,,,,,,,,,,,,,,,,,,yellow,57.75972150004236,57.76639460003935,57.76639460003935,57.76639460003935,57.76639460003935,57.76639460003935,57.76639460003935,57.76639460003935,57.962319100042805,57.962319100042805,57.962319100042805,57.962319100042805,57.962319100042805,57.962319100042805,57.962319100042805,57.951702199992724,57.951751700020395,57.962319100042805,58.11778199998662,58.10872489999747,58.109880200005136,58.11778199998662,58.11778199998662,58.11778199998662,58.11778199998662,58.11778199998662,58.11778199998662,58.11778199998662,58.11778199998662,58.31878390000202,58.31878390000202,58.31878390000202,58.31878390000202,58.31878390000202,58.31878390000202,59.874611200008076,f,1.750748599995859,None,,,,,001,2026-06-16_18h06.02.071,Teamprojekt,,2025.1.0,89.81861129262573,2026-06-16 18h06.06.614392 +0200,
1,1,0,Portal,0.08,j,2.448450999974739,None,,,,,,,,,0,1,1,2,60.6844015000388,,,,,,,,,,,,,,,,,,,,,,,,,,,,,63.41799700004049,63.42870520002907,,64.2190038000117,,,,,,,,,,,,,,,,,,,purple,60.67542970000068,60.6844015000388,60.6844015000388,60.6844015000388,60.6844015000388,60.6844015000388,60.6844015000388,60.6844015000388,60.88505720003741,60.88505720003741,60.88505720003741,60.88505720003741,60.88505720003741,60.88505720003741,60.88505720003741,60.87425430002622,60.874289500003215,60.88505720003741,60.96213430003263,60.951294200029224,60.95242069999222,60.96213430003263,60.96213430003263,60.96213430003263,60.96213430003263,60.96213430003263,60.96213430003263,60.96213430003263,60.96213430003263,61.16320240002824,61.16320240002824,61.16320240002824,61.16320240002824,61.16320240002824,61.16320240002824,63.417906199989375,j,2.448450999974739,None,,,,,001,2026-06-16_18h06.02.071,Teamprojekt,,2025.1.0,89.81861129262573,2026-06-16 18h06.06.614392 +0200,
2,2,0,Standard,0,j,1.6579346000216901,None,,,,,,,,,0,2,2,8,64.22864490002394,,,,,,,,,,,,,,,,,,,,,,,,,,,,,66.09687710000435,66.10668730002362,66.90624979999848,66.89596799999708,,,,,,,,,,,,,,,,,,,red,64.22057270002551,64.22864490002394,64.22864490002394,64.22864490002394,64.22864490002394,64.22864490002394,64.22864490002394,64.22864490002394,64.42871479998576,64.42871479998576,64.42871479998576,64.42871479998576,64.42871479998576,64.42871479998576,64.42871479998576,64.4179421000299,64.41799380001612,64.42871479998576,64.42871479998576,64.41810629999964,64.41940620000241,64.42871479998576,64.42871479998576,64.42871479998576,64.42871479998576,64.42871479998576,64.42871479998576,64.42871479998576,64.42871479998576,64.62975140003255,64.62975140003255,64.62975140003255,64.62975140003255,64.62975140003255,64.62975140003255,66.09677250002278,j,1.6579346000216901,None,,,,,001,2026-06-16_18h06.02.071,Teamprojekt,,2025.1.0,89.81861129262573,2026-06-16 18h06.06.614392 +0200,
3,3,0,Standard,0.08,j,0.9158651999896392,None,,,,,,,,,0,3,3,10,66.90624979999848,,,,,,,,,,,,,,,,,,,,,,,,,,,,,68.10746239998844,68.11829800001578,68.91731610003626,68.90629070001887,,,,,,,,,,,,,,,,,,,purple,66.89734210004099,66.90624979999848,66.90624979999848,66.90624979999848,66.90624979999848,66.90624979999848,66.90624979999848,66.90624979999848,67.10638240003027,67.10638240003027,67.10638240003027,67.10638240003027,67.10638240003027,67.10638240003027,67.10638240003027,67.0962053000112,67.09624410001561,67.10638240003027,67.18412610003725,67.17333850002615,67.17488770000637,67.18412610003725,67.18412610003725,67.18412610003725,67.18412610003725,67.18412610003725,67.18412610003725,67.18412610003725,67.18412610003725,67.3849457000033,67.3849457000033,67.3849457000033,67.3849457000033,67.3849457000033,67.3849457000033,68.1073563999962,j,0.9158651999896392,None,,,,,001,2026-06-16_18h06.02.071,Teamprojekt,,2025.1.0,89.81861129262573,2026-06-16 18h06.06.614392 +0200,
4,4,0,Barrier,0.16,j,1.2682249000063166,None,,,,,,,,,0,4,4,7,68.91731610003626,,,,,,,,,,,,,,,,,,,,,,,,,,,,,70.55102509999415,70.56266110000433,,71.35115820000647,,,,,,,,,,,,,,,,,,,green,68.90758310002275,68.91731610003626,68.91731610003626,68.91731610003626,68.91731610003626,68.91731610003626,68.91731610003626,68.91731610003626,69.1172809000127,69.1172809000127,69.1172809000127,69.1172809000127,69.1172809000127,69.1172809000127,69.1172809000127,69.1074123000144,69.10746150003979,69.1172809000127,69.27281240001321,69.26183030003449,69.26296389999334,69.27281240001321,69.27281240001321,69.27281240001321,69.27281240001321,69.27281240001321,69.27281240001321,69.27281240001321,69.27281240001321,69.47275750001427,69.47275750001427,69.47275750001427,69.47275750001427,69.47275750001427,69.47275750001427,70.5509608000284,j,1.2682249000063166,None,,,,,001,2026-06-16_18h06.02.071,Teamprojekt,,2025.1.0,89.81861129262573,2026-06-16 18h06.06.614392 +0200,
5,5,0,Barrier,0.02,j,1.1030421999748796,None,,,,,,,,,0,5,5,5,71.36235680000391,,,,,,,,,,,,,,,,,,,,,,,,,,,,,72.69600530003663,72.70616699999664,73.50664020003751,73.49495870003011,,,,,,,,,,,,,,,,,,,orange,71.35260189999826,71.36235680000391,71.36235680000391,71.36235680000391,71.36235680000391,71.36235680000391,71.36235680000391,71.36235680000391,71.56178069999442,71.56178069999442,71.56178069999442,71.56178069999442,71.56178069999442,71.56178069999442,71.56178069999442,71.55235060001723,71.55239740002435,71.56178069999442,71.5840832000249,71.5742634999915,71.57583540002815,71.5840832000249,71.5840832000249,71.5840832000249,71.5840832000249,71.5840832000249,71.5840832000249,71.5840832000249,71.5840832000249,71.78474239999196,71.78474239999196,71.78474239999196,71.78474239999196,71.78474239999196,71.78474239999196,72.69586909998907,j,1.1030421999748796,None,,,,,001,2026-06-16_18h06.02.071,Teamprojekt,,2025.1.0,89.81861129262573,2026-06-16 18h06.06.614392 +0200,
6,6,0,Portal,0,f,2.199211600003764,None,,,,,,,,,0,6,6,0,73.50664020003751,,,,,,,,,,,,,,,,,,,,,,,,,,,,,75.90635559998918,75.91802720003761,76.71685010002693,76.70609039999545,,,,,,,,,,,,,,,,,,,orange,73.49601960001746,73.50664020003751,73.50664020003751,73.50664020003751,73.50664020003751,73.50664020003751,73.50664020003751,73.50664020003751,73.70600170001853,73.70600170001853,73.70600170001853,73.70600170001853,73.70600170001853,73.70600170001853,73.70600170001853,73.69616729998961,73.69623310002498,73.70600170001853,73.70600170001853,73.6963962999871,73.69782160001341,73.70600170001853,73.70600170001853,73.70600170001853,73.70600170001853,73.70600170001853,73.70600170001853,73.70600170001853,73.70600170001853,73.90692630002741,73.90692630002741,73.90692630002741,73.90692630002741,73.90692630002741,73.90692630002741,75.9062711999868,f,2.199211600003764,None,,,,,001,2026-06-16_18h06.02.071,Teamprojekt,,2025.1.0,89.81861129262573,2026-06-16 18h06.06.614392 +0200,
7,7,0,Standard,0.02,j,1.4642367000342347,None,,,,,,,,,0,7,7,9,76.71685010002693,,,,,,,,,,,,,,,,,,,,,,,,,,,,,78.40598540002247,78.41777790000197,,79.20673570001964,,,,,,,,,,,,,,,,,,,orange,76.70722460001707,76.71685010002693,76.71685010002693,76.71685010002693,76.71685010002693,76.71685010002693,76.71685010002693,76.71685010002693,76.91792570002144,76.91792570002144,76.91792570002144,76.91792570002144,76.91792570002144,76.91792570002144,76.91792570002144,76.9069676999934,76.90701560000889,76.91792570002144,76.93902400002116,76.92926639999496,76.93096730002435,76.93902400002116,76.93902400002116,76.93902400002116,76.93902400002116,76.93902400002116,76.93902400002116,76.93902400002116,76.93902400002116,77.13951240002643,77.13951240002643,77.13951240002643,77.13951240002643,77.13951240002643,77.13951240002643,78.4059235000168,j,1.4642367000342347,None,,,,,001,2026-06-16_18h06.02.071,Teamprojekt,,2025.1.0,89.81861129262573,2026-06-16 18h06.06.614392 +0200,
8,8,0,Portal,0.02,f,2.403754199971445,None,,,,,,,,,0,8,8,1,79.21737190004205,,,,,,,,,,,,,,,,,,,,,,,,,,,,,81.85154780000448,81.8611346000107,82.66101300000446,82.65076869999757,,,,,,,,,,,,,,,,,,,purple,79.20813250000356,79.21737190004205,79.21737190004205,79.21737190004205,79.21737190004205,79.21737190004205,79.21737190004205,79.21737190004205,79.41682550002588,79.41682550002588,79.41682550002588,79.41682550002588,79.41682550002588,79.41682550002588,79.41682550002588,79.40748580003856,79.4075607000268,79.41682550002588,79.43900310003664,79.42815500003053,79.42928800004302,79.43900310003664,79.43900310003664,79.43900310003664,79.43900310003664,79.43900310003664,79.43900310003664,79.43900310003664,79.43900310003664,79.63986870000372,79.63986870000372,79.63986870000372,79.63986870000372,79.63986870000372,79.63986870000372,81.85144020000007,f,2.403754199971445,None,,,,,001,2026-06-16_18h06.02.071,Teamprojekt,,2025.1.0,89.81861129262573,2026-06-16 18h06.06.614392 +0200,
9,9,0,Portal,0.16,f,1.57730740000261,None,,,,,,,,,0,9,9,3,82.66101300000446,,,,,,,,,,,,,,,,,,,,,,,,,,,,,84.59541350003565,84.60541750001721,85.40528920001816,85.39471060002688,,,,,,,,,,,,,,,,,,,purple,82.65227050002431,82.66101300000446,82.66101300000446,82.66101300000446,82.66101300000446,82.66101300000446,82.66101300000446,82.66101300000446,82.86136069998611,82.86136069998611,82.86136069998611,82.86136069998611,82.86136069998611,82.86136069998611,82.86136069998611,82.85052859998541,82.85057489998871,82.86136069998611,83.01652120001381,83.00658280000789,83.00798029999714,83.01652120001381,83.01652120001381,83.01652120001381,83.01652120001381,83.01652120001381,83.01652120001381,83.01652120001381,83.01652120001381,83.2172877000412,83.2172877000412,83.2172877000412,83.2172877000412,83.2172877000412,83.2172877000412,84.5953448000364,f,1.57730740000261,None,,,,,001,2026-06-16_18h06.02.071,Teamprojekt,,2025.1.0,89.81861129262573,2026-06-16 18h06.06.614392 +0200,
10,10,0,Barrier,0.08,j,0.7704147000331432,None,,,,,,,,,0,10,10,6,85.40528920001816,,,,,,,,,,,,,,,,,,,,,,,,,,,,,86.461148100032,86.47294950002106,,87.26184990000911,,,,,,,,,,,,,,,,,,,magenta,85.3960836000042,85.40528920001816,85.40528920001816,85.40528920001816,85.40528920001816,85.40528920001816,85.40528920001816,85.40528920001816,85.60635379998712,85.60635379998712,85.60635379998712,85.60635379998712,85.60635379998712,85.60635379998712,85.60635379998712,85.59460790001322,85.59465829998953,85.60635379998712,85.68320209998637,85.6727746000397,85.67406009999104,85.68320209998637,85.68320209998637,85.68320209998637,85.68320209998637,85.68320209998637,85.68320209998637,85.68320209998637,85.68320209998637,85.8839993000147,85.8839993000147,85.8839993000147,85.8839993000147,85.8839993000147,85.8839993000147,86.46108129998902,j,0.7704147000331432,None,,,,,001,2026-06-16_18h06.02.071,Teamprojekt,,2025.1.0,89.81861129262573,2026-06-16 18h06.06.614392 +0200,
11,11,0,Barrier,0,j,0.9166174000129104,None,,,,,,,,,0,11,11,4,87.27183720003814,,,,,,,,,,,,,,,,,,,,,,,,,,,,,88.39602430001833,88.40607840003213,89.20505150000099,89.19517180003459,,,,,,,,,,,,,,,,,,,red,87.26320809999015,87.27183720003814,87.27183720003814,87.27183720003814,87.27183720003814,87.27183720003814,87.27183720003814,87.27183720003814,87.47175830003107,87.47175830003107,87.47175830003107,87.47175830003107,87.47175830003107,87.47175830003107,87.47175830003107,87.461959999986,87.46199410001282,87.47175830003107,87.47175830003107,87.46207780000987,87.46311459998833,87.47175830003107,87.47175830003107,87.47175830003107,87.47175830003107,87.47175830003107,87.47175830003107,87.47175830003107,87.47175830003107,87.67280780000146,87.67280780000146,87.67280780000146,87.67280780000146,87.67280780000146,87.67280780000146,88.39592989999801,j,0.9166174000129104,None,,,,,001,2026-06-16_18h06.02.071,Teamprojekt,,2025.1.0,89.81861129262573,2026-06-16 18h06.06.614392 +0200,
,,,,,,,,,,,,,,,,,,,,,,,,,,,,,,,,,,,,,,,,,,,,,,,,,,,,,,,,,,,,,,,,,,,,,,,,,,,,,,,,,,,,,,,,,,,,,,,,,,,,,,,,,,,,,,,89.19532800000161,89.20505150000099,89.6945177000016,,,,,,,,,
