thisN,thisTrialN,thisRepN,conditions_practice,ISI_practice,keyPractice.keys,keyPractice.rt,keyPractice.duration,elementMotionDemo.thisRepN,elementMotionDemo.thisTrialN,elementMotionDemo.thisN,elementMotionDemo.thisIndex,groupMotionDemo.thisRepN,groupMotionDemo.thisTrialN,groupMotionDemo.thisN,groupMotionDemo.thisIndex,practiceLoop.thisRepN,practiceLoop.thisTrialN,practiceLoop.thisN,practiceLoop.thisIndex,thisRow.t,notes,InstructionScreen.started,textInstructions.started,keyInstructionContinue.started,InstructionScreen.stopped,keyInstructionContinue.keys,keyInstructionContinue.rt,keyInstructionContinue.duration,direction,exampleFrame1.started,ternusExampleLeft.started,ternusExampleMiddle.started,ternusExampleRight.started,FixationCrossExample.started,ternusExampleLeft.stopped,ternusExampleMiddle.stopped,ternusExampleRight.stopped,FixationCrossExample.stopped,exampleFrame1.stopped,exampleFrame2.started,ternusExampleLeft_2.started,ternusExampleMiddle_2.started,ternusExampleRight_2.started,FixationCrossExample_2.started,ternusExampleLeft_2.stopped,ternusExampleMiddle_2.stopped,ternusExampleRight_2.stopped,FixationCrossExample_2.stopped,exampleFrame2.stopped,blank800.started,FixationCrossBlank800.started,FixationCrossBlank800.stopped,blank800.stopped,elementMotionExplained.started,textElementMotion.started,keyElementMotionExplained.started,elementMotionExplained.stopped,keyElementMotionExplained.keys,keyElementMotionExplained.rt,keyElementMotionExplained.duration,blank160.started,FixationCrossBlank160.started,FixationCrossBlank160.stopped,blank160.stopped,groupMotionExplained.started,textGroupMotion.started,keyGroupMotionExplained.started,groupMotionExplained.stopped,keyGroupMotionExplained.keys,keyGroupMotionExplained.rt,keyGroupMotionExplained.duration,causalColor,practiceFrame1.started,ternusObjLeftPrac.started,ternusObjMiddlePrac.started,ternusObjRightPrac.started,FixationCrossPrac.started,portalLeftPrac.started,portalRightPrac.started,BarrierPrac.started,ternusObjLeftPrac.stopped,ternusObjMiddlePrac.stopped,ternusObjRightPrac.stopped,FixationCrossPrac.stopped,portalLeftPrac.stopped,portalRightPrac.stopped,BarrierPrac.stopped,practiceFrame1.stopped,blankISI_Practice.started,FixationCrossBlankPractice.started,FixationCrossBlankPractice.stopped,blankISI_Practice.stopped,practiceFrame2.started,ternusObjLeftPrac_2.started,ternusObjMiddlePrac_2.started,ternusObjRightPrac_2.started,FixationCrossPrac_2.started,portalLeftPrac_2.started,portalRightPrac_2.started,BarrierPrac_2.started,keyPractice.started,ternusObjLeftPrac_2.stopped,ternusObjMiddlePrac_2.stopped,ternusObjRightPrac_2.stopped,portalLeftPrac_2.stopped,portalRightPrac_2.stopped,BarrierPrac_2.stopped,practiceFrame2.stopped,practiceLoop.keyPractice.keys,practiceLoop.keyPractice.rt,practiceLoop.keyPractice.duration,StartScreen.started,textStartMessage.started,keyStart.started,participant,session,date,expName,expVersion,psychopyVersion,frameRate,expStart,
,,,,,,,,,,,,,,,,,,,,,,0.003413100028410554,0.01485450001200661,0.9972375999786891,1.3863665999961086,space,0.37878420000197366,None,,,,,,,,,,,,,,,,,,,,,,,,,,,,,,,,,,,,,,,,,,,,,,,,,,,,,,,,,,,,,,,,,,,,,,,,,,,,,,,,,,,,,,,,001,2026-06-16_22h19.40.699,Teamprojekt,,2025.1.0,88.7561097571267,2026-06-16 22h19.52.713695 +0200,
0,0,0,,,,,,0,0,0,0,,,,,,,,,1.3982950000208803,,,,,,,,,RL,1.3870670000324026,1.3982950000208803,1.3982950000208803,1.3982950000208803,1.3982950000208803,1.597279699984938,1.597279699984938,1.597279699984938,1.597279699984938,1.586719200015068,1.5870683999964967,1.597279699984938,1.597279699984938,1.597279699984938,1.597279699984938,1.7974060000269674,1.7974060000269674,1.7974060000269674,1.7974060000269674,1.7880026000202633,1.7880470000091009,1.7974060000269674,2.597648399998434,2.5868716000113636,,,,,,,,,,,,,,,,,,,,,,,,,,,,,,,,,,,,,,,,,,,,,,,,,,,,,,,,,,,,,,,001,2026-06-16_22h19.40.699,Teamprojekt,,2025.1.0,88.7561097571267,2026-06-16 22h19.52.713695 +0200,
1,0,1,,,,,,1,0,1,0,,,,,,,,,2.597648399998434,,,,,,,,,LR,2.587382500001695,2.597648399998434,2.597648399998434,2.597648399998434,2.597648399998434,2.798191500012763,2.798191500012763,2.798191500012763,2.798191500012763,2.7862381000304595,2.786601400002837,2.798191500012763,2.798191500012763,2.798191500012763,2.798191500012763,2.998431799991522,2.998431799991522,2.998431799991522,2.998431799991522,2.9869158000219613,2.986948299978394,2.998431799991522,3.7976835999870673,3.7861374000203796,,,,,,,,,,,,,,,,,,,,,,,,,,,,,,,,,,,,,,,,,,,,,,,,,,,,,,,,,,,,,,,001,2026-06-16_22h19.40.699,Teamprojekt,,2025.1.0,88.7561097571267,2026-06-16 22h19.52.713695 +0200,
2,0,2,,,,,,2,0,2,0,,,,,,,,,3.7976835999870673,,,,,,,,,RL,3.78661990002729,3.7976835999870673,3.7976835999870673,3.7976835999870673,3.7976835999870673,3.998112700006459,3.998112700006459,3.998112700006459,3.998112700006459,3.9867506999871694,3.9870837000198662,3.998112700006459,3.998112700006459,3.998112700006459,3.998112700006459,4.197449800034519,4.197449800034519,4.197449800034519,4.197449800034519,4.187349800020456,4.187398899986874,4.197449800034519,4.9980776000302285,4.9869730999926105,,,,,,,,,,,,,,,,,,,,,,,,,,,,,,,,,,,,,,,,,,,,,,,,,,,,,,,,,,,,,,,001,2026-06-16_22h19.40.699,Teamprojekt,,2025.1.0,88.7561097571267,2026-06-16 22h19.52.713695 +0200,
3,0,3,,,,,,3,0,3,0,,,,,,,,,4.9980776000302285,,,,,,,,,RL,4.987474200024735,4.9980776000302285,4.9980776000302285,4.9980776000302285,4.9980776000302285,5.197121699980926,5.197121699980926,5.197121699980926,5.197121699980926,5.187863700033631,5.188462799997069,5.197121699980926,5.197121699980926,5.197121699980926,5.197121699980926,5.398142100020777,5.398142100020777,5.398142100020777,5.398142100020777,5.386165599978995,5.3861979999928735,5.398142100020777,,6.18689519999316,,,,,,,,,,,,,,,,,,,,,,,,,,,,,,,,,,,,,,,,,,,,,,,,,,,,,,,,,,,,,,,001,2026-06-16_22h19.40.699,Teamprojekt,,2025.1.0,88.7561097571267,2026-06-16 22h19.52.713695 +0200,
,,,,,,,,,,,,,,,,,,,,,,,,,,,,,,,,,,,,,,,,,,,,,,,,,,,,,,6.187034600006882,6.19705720001366,6.685879900003783,8.520415999984834,space,1.831860999984201,None,,,,,,,,,,,,,,,,,,,,,,,,,,,,,,,,,,,,,,,,,,,,,,,,,,,,,,,,001,2026-06-16_22h19.40.699,Teamprojekt,,2025.1.0,88.7561097571267,2026-06-16 22h19.52.713695 +0200,
0,0,0,,,,,,,,,,0,0,0,0,,,,,8.53124330000719,,,,,,,,,RL,8.521118299977388,8.53124330000719,8.53124330000719,8.53124330000719,8.53124330000719,8.73018770001363,8.73018770001363,8.73018770001363,8.73018770001363,8.71957030001795,8.876947799988557,8.886621100013144,8.886621100013144,8.886621100013144,8.886621100013144,9.085760599991772,9.085760599991772,9.085760599991772,9.085760599991772,9.07543430000078,9.075465800007805,9.085760599991772,9.885668400034774,9.874825300008524,,,,,,,,8.719614300003741,8.73018770001363,8.886621100013144,8.876302300021052,,,,,,,,,,,,,,,,,,,,,,,,,,,,,,,,,,,,,,,,,,,,,,,,,,,,001,2026-06-16_22h19.40.699,Teamprojekt,,2025.1.0,88.7561097571267,2026-06-16 22h19.52.713695 +0200,
1,0,1,,,,,,,,,,1,0,1,0,,,,,9.885668400034774,,,,,,,,,LR,9.87560269999085,9.885668400034774,9.885668400034774,9.885668400034774,9.885668400034774,10.08563210000284,10.08563210000284,10.08563210000284,10.08563210000284,10.075962600007188,10.230792200018186,10.24118469998939,10.24118469998939,10.24118469998939,10.24118469998939,10.441127600031905,10.441127600031905,10.441127600031905,10.441127600031905,10.431663000024855,10.43171189998975,10.441127600031905,11.241614300000947,11.230386700015515,,,,,,,,10.076044699992053,10.08563210000284,10.24118469998939,10.230318300018553,,,,,,,,,,,,,,,,,,,,,,,,,,,,,,,,,,,,,,,,,,,,,,,,,,,,001,2026-06-16_22h19.40.699,Teamprojekt,,2025.1.0,88.7561097571267,2026-06-16 22h19.52.713695 +0200,
2,0,2,,,,,,,,,,2,0,2,0,,,,,11.241614300000947,,,,,,,,,RL,11.230866600002628,11.241614300000947,11.241614300000947,11.241614300000947,11.241614300000947,11.441173000028357,11.441173000028357,11.441173000028357,11.441173000028357,11.430294000019785,11.586072999984026,11.597533799998928,11.597533799998928,11.597533799998928,11.597533799998928,11.796733100025449,11.796733100025449,11.796733100025449,11.796733100025449,11.787062800023705,11.787103199982084,11.796733100025449,12.597801900003105,12.586703500011936,,,,,,,,11.430324900022242,11.441173000028357,11.597533799998928,11.58571800001664,,,,,,,,,,,,,,,,,,,,,,,,,,,,,,,,,,,,,,,,,,,,,,,,,,,,001,2026-06-16_22h19.40.699,Teamprojekt,,2025.1.0,88.7561097571267,2026-06-16 22h19.52.713695 +0200,
3,0,3,,,,,,,,,,3,0,3,0,,,,,12.597801900003105,,,,,,,,,LR,12.587267199996859,12.597801900003105,12.597801900003105,12.597801900003105,12.597801900003105,12.797648300009314,12.797648300009314,12.797648300009314,12.797648300009314,12.78684900002554,12.944046000018716,12.953157300013117,12.953157300013117,12.953157300013117,12.953157300013117,13.153103800024837,13.153103800024837,13.153103800024837,13.153103800024837,13.14284470002167,13.142877899983432,13.153103800024837,13.953058000013698,13.941212000034284,,,,,,,,12.786882199987303,12.797648300009314,12.953157300013117,12.943661400000565,,,,,,,,,,,,,,,,,,,,,,,,,,,,,,,,,,,,,,,,,,,,,,,,,,,,001,2026-06-16_22h19.40.699,Teamprojekt,,2025.1.0,88.7561097571267,2026-06-16 22h19.52.713695 +0200,
,,,,,,,,,,,,,,,,,,,,,,,,,,,,,,,,,,,,,,,,,,,,,,,,,,,,,,,,,,,,,,,,,13.941344599996228,13.953058000013698,14.441074300033506,16.78677389997756,space,2.335878700017929,None,,,,,,,,,,,,,,,,,,,,,,,,,,,,,,,,,,,,,,,,,,,,,001,2026-06-16_22h19.40.699,Teamprojekt,,2025.1.0,88.7561097571267,2026-06-16 22h19.52.713695 +0200,
0,0,0,Barrier,0.08,f,0.7683798999642022,None,,,,,,,,,0,0,0,6,16.803083200007677,,,,,,,,,RL,,,,,,,,,,,,,,,,,,,,,18.04191000002902,18.051946400024462,18.851835699984804,18.84143079997739,,,,,,,,,,,,,,,,,,,"[135, 1, 0.8]",16.79665740003111,16.803083200007677,16.803083200007677,16.803083200007677,16.803083200007677,16.803083200007677,16.803083200007677,16.803083200007677,16.997082100016996,16.997082100016996,16.997082100016996,16.997082100016996,16.997082100016996,16.997082100016996,16.997082100016996,16.986703799979296,16.986747200018726,16.997082100016996,17.074062500032596,17.064116600027774,17.067692700016778,17.074062500032596,17.074062500032596,17.074062500032596,17.074062500032596,17.074062500032596,17.074062500032596,17.074062500032596,17.264086699986365,17.274248700006865,17.274248700006865,17.274248700006865,17.274248700006865,17.274248700006865,17.274248700006865,18.041843399987556,f,0.7683798999642022,None,,,,,001,2026-06-16_22h19.40.699,Teamprojekt,,2025.1.0,88.7561097571267,2026-06-16 22h19.52.713695 +0200,
1,1,0,Standard,0.08,j,0.7209305000142194,None,,,,,,,,,0,1,1,10,18.851835699984804,,,,,,,,,LR,,,,,,,,,,,,,,,,,,,,,20.042346300033387,20.05246299999999,20.851759899989702,20.841906299989205,,,,,,,,,,,,,,,,,,,"[45, 1, 0.8]",18.844203300017398,18.851835699984804,18.851835699984804,18.851835699984804,18.851835699984804,18.851835699984804,18.851835699984804,18.851835699984804,19.05182330001844,19.05182330001844,19.05182330001844,19.05182330001844,19.05182330001844,19.05182330001844,19.05182330001844,19.041064899996854,19.04111049999483,19.05182330001844,19.1301867000293,19.118730999995023,19.122107499977574,19.1301867000293,19.1301867000293,19.1301867000293,19.1301867000293,19.1301867000293,19.1301867000293,19.1301867000293,19.319509399996605,19.330420000012964,19.330420000012964,19.330420000012964,19.330420000012964,19.330420000012964,19.330420000012964,20.042250800004695,j,0.7209305000142194,None,,,,,001,2026-06-16_22h19.40.699,Teamprojekt,,2025.1.0,88.7561097571267,2026-06-16 22h19.52.713695 +0200,
2,2,0,Standard,0.16,j,0.532021299994085,None,,,,,,,,,0,2,2,11,20.851759899989702,,,,,,,,,LR,,,,,,,,,,,,,,,,,,,,,21.930199900001753,21.94117860001279,,22.730568400002085,,,,,,,,,,,,,,,,,,,"[45, 1, 0.8]",20.845101599988993,20.851759899989702,20.851759899989702,20.851759899989702,20.851759899989702,20.851759899989702,20.851759899989702,20.851759899989702,21.05269620002946,21.05269620002946,21.05269620002946,21.05269620002946,21.05269620002946,21.05269620002946,21.05269620002946,21.041746200004127,21.041779400024097,21.05269620002946,21.207959500025027,21.19741259998409,21.20145940000657,21.207959500025027,21.207959500025027,21.207959500025027,21.207959500025027,21.207959500025027,21.207959500025027,21.207959500025027,21.397119600034785,21.408241800032556,21.408241800032556,21.408241800032556,21.408241800032556,21.408241800032556,21.408241800032556,21.930105199979153,j,0.532021299994085,None,,,,,001,2026-06-16_22h19.40.699,Teamprojekt,,2025.1.0,88.7561097571267,2026-06-16 22h19.52.713695 +0200,
3,3,0,Standard,0,j,0.44379659998230636,None,,,,,,,,,0,3,3,8,22.74054840003373,,,,,,,,,LR,,,,,,,,,,,,,,,,,,,,,23.576401600032113,23.585148699989077,24.384988000034355,24.373881799983792,,,,,,,,,,,,,,,,,,,"[180, 1, 0.8]",22.733523699978832,22.74054840003373,22.74054840003373,22.74054840003373,22.74054840003373,22.74054840003373,22.74054840003373,22.74054840003373,22.941474799998105,22.941474799998105,22.941474799998105,22.941474799998105,22.941474799998105,22.941474799998105,22.941474799998105,22.930621700012125,22.93066870002076,22.941474799998105,22.941474799998105,22.930774200009182,22.9341715000337,22.941474799998105,22.941474799998105,22.941474799998105,22.941474799998105,22.941474799998105,22.941474799998105,22.941474799998105,23.130338600021787,23.140526800008956,23.140526800008956,23.140526800008956,23.140526800008956,23.140526800008956,23.140526800008956,23.576304299989715,j,0.44379659998230636,None,,,,,001,2026-06-16_22h19.40.699,Teamprojekt,,2025.1.0,88.7561097571267,2026-06-16 22h19.52.713695 +0200,
4,4,0,Barrier,0,j,0.47923789999913424,None,,,,,,,,,0,4,4,4,24.384988000034355,,,,,,,,,LR,,,,,,,,,,,,,,,,,,,,,25.264082000008784,25.27373080002144,26.073814200004563,26.063760599994566,,,,,,,,,,,,,,,,,,,"[0, 1, 0.8]",24.37643940001726,24.384988000034355,24.384988000034355,24.384988000034355,24.384988000034355,24.384988000034355,24.384988000034355,24.384988000034355,24.586614300031215,24.586614300031215,24.586614300031215,24.586614300031215,24.586614300031215,24.586614300031215,24.586614300031215,24.575036800000817,24.575082700001076,24.586614300031215,24.586614300031215,24.575186400034,24.578945100016426,24.586614300031215,24.586614300031215,24.586614300031215,24.586614300031215,24.586614300031215,24.586614300031215,24.586614300031215,24.774659599992447,24.78504669998074,24.78504669998074,24.78504669998074,24.78504669998074,24.78504669998074,24.78504669998074,25.263986799982376,j,0.47923789999913424,None,,,,,001,2026-06-16_22h19.40.699,Teamprojekt,,2025.1.0,88.7561097571267,2026-06-16 22h19.52.713695 +0200,
5,5,0,Portal,0.02,j,0.41691319999517873,None,,,,,,,,,0,5,5,1,26.073814200004563,,,,,,,,,LR,,,,,,,,,,,,,,,,,,,,,26.908396399987396,26.918523799977265,27.718187600024976,27.70732849999331,,,,,,,,,,,,,,,,,,,"[180, 1, 0.8]",26.06675769999856,26.073814200004563,26.073814200004563,26.073814200004563,26.073814200004563,26.073814200004563,26.073814200004563,26.073814200004563,26.274662300013006,26.274662300013006,26.274662300013006,26.274662300013006,26.274662300013006,26.274662300013006,26.274662300013006,26.262880099995527,26.262913300015498,26.274662300013006,26.296940500033088,26.285309099999722,26.28871569997864,26.296940500033088,26.296940500033088,26.296940500033088,26.296940500033088,26.296940500033088,26.296940500033088,26.296940500033088,26.485712099995,26.496448400022928,26.496448400022928,26.496448400022928,26.496448400022928,26.496448400022928,26.496448400022928,26.908300500013866,j,0.41691319999517873,None,,,,,001,2026-06-16_22h19.40.699,Teamprojekt,,2025.1.0,88.7561097571267,2026-06-16 22h19.52.713695 +0200,
6,6,0,Portal,0.08,j,0.5152984000160359,None,,,,,,,,,0,6,6,2,27.718187600024976,,,,,,,,,RL,,,,,,,,,,,,,,,,,,,,,28.70833280001534,28.71811900002649,29.517903700005263,29.507315399998333,,,,,,,,,,,,,,,,,,,"[315, 1, 0.8]",27.70992739999201,27.718187600024976,27.718187600024976,27.718187600024976,27.718187600024976,27.718187600024976,27.718187600024976,27.718187600024976,27.91863780003041,27.91863780003041,27.91863780003041,27.91863780003041,27.91863780003041,27.91863780003041,27.91863780003041,27.908238200005144,27.908272600034252,27.91863780003041,27.9994100999902,27.986439700005576,27.99205920001259,27.9994100999902,27.9994100999902,27.9994100999902,27.9994100999902,27.9994100999902,27.9994100999902,27.9994100999902,28.18492969998624,28.197182999982033,28.197182999982033,28.197182999982033,28.197182999982033,28.197182999982033,28.197182999982033,28.708233200013638,j,0.5152984000160359,None,,,,,001,2026-06-16_22h19.40.699,Teamprojekt,,2025.1.0,88.7561097571267,2026-06-16 22h19.52.713695 +0200,
7,7,0,Portal,0,j,0.3874350999831222,None,,,,,,,,,0,7,7,0,29.517903700005263,,,,,,,,,RL,,,,,,,,,,,,,,,,,,,,,30.296727999986615,30.307180700008757,31.10681269998895,31.096802000014577,,,,,,,,,,,,,,,,,,,"[0, 1, 0.8]",29.50990439997986,29.517903700005263,29.517903700005263,29.517903700005263,29.517903700005263,29.517903700005263,29.517903700005263,29.517903700005263,29.718236799992155,29.718236799992155,29.718236799992155,29.718236799992155,29.718236799992155,29.718236799992155,29.718236799992155,29.707202800025698,29.707234699977562,29.718236799992155,29.718236799992155,29.70733120001387,29.71078090002993,29.718236799992155,29.718236799992155,29.718236799992155,29.718236799992155,29.718236799992155,29.718236799992155,29.718236799992155,29.90779000002658,29.918225400033407,29.918225400033407,29.918225400033407,29.918225400033407,29.918225400033407,29.918225400033407,30.29659460001858,j,0.3874350999831222,None,,,,,001,2026-06-16_22h19.40.699,Teamprojekt,,2025.1.0,88.7561097571267,2026-06-16 22h19.52.713695 +0200,
8,8,0,Barrier,0.16,j,0.3387226000195369,None,,,,,,,,,0,8,8,7,31.10681269998895,,,,,,,,,RL,,,,,,,,,,,,,,,,,,,,,31.996700800023973,32.00774079997791,32.806794599979185,32.796071999997366,,,,,,,,,,,,,,,,,,,"[180, 1, 0.8]",31.099587799981236,31.10681269998895,31.10681269998895,31.10681269998895,31.10681269998895,31.10681269998895,31.10681269998895,31.10681269998895,31.306901499978267,31.306901499978267,31.306901499978267,31.306901499978267,31.306901499978267,31.306901499978267,31.306901499978267,31.29721280001104,31.297265100001823,31.306901499978267,31.46326270001009,31.451548099983484,31.45485939999344,31.46326270001009,31.46326270001009,31.46326270001009,31.46326270001009,31.46326270001009,31.46326270001009,31.46326270001009,31.65280869998969,31.662415500031784,31.662415500031784,31.662415500031784,31.662415500031784,31.662415500031784,31.662415500031784,31.99661329999799,j,0.3387226000195369,None,,,,,001,2026-06-16_22h19.40.699,Teamprojekt,,2025.1.0,88.7561097571267,2026-06-16 22h19.52.713695 +0200,
9,9,0,Barrier,0.02,f,0.35771979996934533,None,,,,,,,,,0,9,9,5,32.806794599979185,,,,,,,,,RL,,,,,,,,,,,,,,,,,,,,,33.58593980001751,33.595524000003934,34.39554440003121,34.38503409997793,,,,,,,,,,,,,,,,,,,"[180, 1, 0.8]",32.798698500031605,32.806794599979185,32.806794599979185,32.806794599979185,32.806794599979185,32.806794599979185,32.806794599979185,32.806794599979185,33.007258200028446,33.007258200028446,33.007258200028446,33.007258200028446,33.007258200028446,33.007258200028446,33.007258200028446,32.9965058999951,32.99653910001507,33.007258200028446,33.03003520000493,33.01891980000073,33.02296119998209,33.03003520000493,33.03003520000493,33.03003520000493,33.03003520000493,33.03003520000493,33.03003520000493,33.03003520000493,33.21878450002987,33.22995180002181,33.22995180002181,33.22995180002181,33.22995180002181,33.22995180002181,33.22995180002181,33.585844499990344,f,0.35771979996934533,None,,,,,001,2026-06-16_22h19.40.699,Teamprojekt,,2025.1.0,88.7561097571267,2026-06-16 22h19.52.713695 +0200,
10,10,0,Portal,0.16,j,0.39516190002905205,None,,,,,,,,,0,10,10,3,34.39554440003121,,,,,,,,,RL,,,,,,,,,,,,,,,,,,,,,35.34064250002848,35.35196860000724,36.151085300021805,36.140124700032175,,,,,,,,,,,,,,,,,,,"[90, 1, 0.8]",34.38760610000463,34.39554440003121,34.39554440003121,34.39554440003121,34.39554440003121,34.39554440003121,34.39554440003121,34.39554440003121,34.59548660001019,34.59548660001019,34.59548660001019,34.59548660001019,34.59548660001019,34.59548660001019,34.59548660001019,34.58559969998896,34.585647300002165,34.59548660001019,34.75117090001004,34.74107600003481,34.74486560001969,34.75117090001004,34.75117090001004,34.75117090001004,34.75117090001004,34.75117090001004,34.75117090001004,34.75117090001004,34.939880200021435,34.95134650002001,34.95134650002001,34.95134650002001,34.95134650002001,34.95134650002001,34.95134650002001,35.34057689999463,j,0.39516190002905205,None,,,,,001,2026-06-16_22h19.40.699,Teamprojekt,,2025.1.0,88.7561097571267,2026-06-16 22h19.52.713695 +0200,
11,11,0,Standard,0.02,f,0.28351109998766333,None,,,,,,,,,0,11,11,9,36.151085300021805,,,,,,,,,RL,,,,,,,,,,,,,,,,,,,,,36.85130019998178,36.863120699999854,,37.652132600022014,,,,,,,,,,,,,,,,,,,"[180, 1, 0.8]",36.14278340002056,36.151085300021805,36.151085300021805,36.151085300021805,36.151085300021805,36.151085300021805,36.151085300021805,36.151085300021805,36.35090030002175,36.35090030002175,36.35090030002175,36.35090030002175,36.35090030002175,36.35090030002175,36.35090030002175,36.34080350003205,36.34083780000219,36.35090030002175,36.373173200001474,36.3631347999908,36.36642340000253,36.373173200001474,36.373173200001474,36.373173200001474,36.373173200001474,36.373173200001474,36.373173200001474,36.373173200001474,36.56299399997806,36.573409600008745,36.573409600008745,36.573409600008745,36.573409600008745,36.573409600008745,36.573409600008745,36.85123740002746,f,0.28351109998766333,None,,,,,001,2026-06-16_22h19.40.699,Teamprojekt,,2025.1.0,88.7561097571267,2026-06-16 22h19.52.713695 +0200,
,,,,,,,,,,,,,,,,,,,,,,,,,,,,,,,,,,,,,,,,,,,,,,,,,,,,,,,,,,,,,,,,,,,,,,,,,,,,,,,,,,,,,,,,,,,,,,,,,,,,,,,,,,,,,,,,37.65230369998608,37.6624002000317,38.151765100017656,,,,,,,,,
