thisN,thisTrialN,thisRepN,conditions_practice,ISI_practice,keyPractice.keys,keyPractice.rt,keyPractice.duration,elementMotionDemo.thisRepN,elementMotionDemo.thisTrialN,elementMotionDemo.thisN,elementMotionDemo.thisIndex,groupMotionDemo.thisRepN,groupMotionDemo.thisTrialN,groupMotionDemo.thisN,groupMotionDemo.thisIndex,practiceLoop.thisRepN,practiceLoop.thisTrialN,practiceLoop.thisN,practiceLoop.thisIndex,thisRow.t,notes,blank800.started,FixationCrossBlank800.started,FixationCrossBlank800.stopped,blank800.stopped,groupMotionExplained.started,textGroupMotion.started,keyGroupMotionExplained.started,groupMotionExplained.stopped,keyGroupMotionExplained.keys,keyGroupMotionExplained.rt,keyGroupMotionExplained.duration,causalColor,direction,practiceFrame1.started,ternusObjLeftPrac.started,ternusObjMiddlePrac.started,ternusObjRightPrac.started,FixationCrossPrac.started,portalLeftPrac.started,portalRightPrac.started,BarrierPrac.started,ternusObjLeftPrac.stopped,ternusObjMiddlePrac.stopped,ternusObjRightPrac.stopped,FixationCrossPrac.stopped,portalLeftPrac.stopped,portalRightPrac.stopped,BarrierPrac.stopped,practiceFrame1.stopped,blankISI_Practice.started,FixationCrossBlankPractice.started,FixationCrossBlankPractice.stopped,blankISI_Practice.stopped,practiceFrame2.started,ternusObjLeftPrac_2.started,ternusObjMiddlePrac_2.started,ternusObjRightPrac_2.started,FixationCrossPrac_2.started,portalLeftPrac_2.started,portalRightPrac_2.started,BarrierPrac_2.started,keyPractice.started,ternusObjLeftPrac_2.stopped,ternusObjMiddlePrac_2.stopped,ternusObjRightPrac_2.stopped,portalLeftPrac_2.stopped,portalRightPrac_2.stopped,BarrierPrac_2.stopped,practiceFrame2.stopped,practiceLoop.keyPractice.keys,practiceLoop.keyPractice.rt,practiceLoop.keyPractice.duration,StartScreen.started,textStartMessage.started,keyStart.started,participant,session,date,expName,expVersion,psychopyVersion,frameRate,expStart,
0,0,0,,,,,,0,0,0,0,,,,,,,,,0.008416399999987334,,0.004658999969251454,0.008416399999987334,0.8031822000048123,0.7920260999817401,,,,,,,,,,,,,,,,,,,,,,,,,,,,,,,,,,,,,,,,,,,,,,,,,,,,,001,2026-06-16_21h36.26.366,Teamprojekt,,2025.1.0,86.05281746269998,2026-06-16 21h36.30.190242 +0200,
1,0,1,,,,,,1,0,1,0,,,,,,,,,0.8031822000048123,,0.7922031999914907,0.8031822000048123,1.6045523000066169,1.5930450999876484,,,,,,,,,,,,,,,,,,,,,,,,,,,,,,,,,,,,,,,,,,,,,,,,,,,,,001,2026-06-16_21h36.26.366,Teamprojekt,,2025.1.0,86.05281746269998,2026-06-16 21h36.30.190242 +0200,
2,0,2,,,,,,2,0,2,0,,,,,,,,,1.6045523000066169,,1.5932300999993458,1.6045523000066169,2.4046944999718107,2.392929199966602,,,,,,,,,,,,,,,,,,,,,,,,,,,,,,,,,,,,,,,,,,,,,,,,,,,,,001,2026-06-16_21h36.26.366,Teamprojekt,,2025.1.0,86.05281746269998,2026-06-16 21h36.30.190242 +0200,
3,0,3,,,,,,3,0,3,0,,,,,,,,,2.4046944999718107,,2.3930630999966525,2.4046944999718107,3.2046824999852106,3.1929785999818705,,,,,,,,,,,,,,,,,,,,,,,,,,,,,,,,,,,,,,,,,,,,,,,,,,,,,001,2026-06-16_21h36.26.366,Teamprojekt,,2025.1.0,86.05281746269998,2026-06-16 21h36.30.190242 +0200,
0,0,0,,,,,,,,,,0,0,0,0,,,,,3.2046824999852106,,3.193484899995383,3.2046824999852106,4.003913399996236,3.993774599977769,,,,,,,,,,,,,,,,,,,,,,,,,,,,,,,,,,,,,,,,,,,,,,,,,,,,,001,2026-06-16_21h36.26.366,Teamprojekt,,2025.1.0,86.05281746269998,2026-06-16 21h36.30.190242 +0200,
1,0,1,,,,,,,,,,1,0,1,0,,,,,4.003913399996236,,3.993901699956041,4.003913399996236,4.804710900003556,4.792913899989799,,,,,,,,,,,,,,,,,,,,,,,,,,,,,,,,,,,,,,,,,,,,,,,,,,,,,001,2026-06-16_21h36.26.366,Teamprojekt,,2025.1.0,86.05281746269998,2026-06-16 21h36.30.190242 +0200,
2,0,2,,,,,,,,,,2,0,2,0,,,,,4.804710900003556,,4.793087699974421,4.804710900003556,5.604214499995578,5.592736399965361,,,,,,,,,,,,,,,,,,,,,,,,,,,,,,,,,,,,,,,,,,,,,,,,,,,,,001,2026-06-16_21h36.26.366,Teamprojekt,,2025.1.0,86.05281746269998,2026-06-16 21h36.30.190242 +0200,
3,0,3,,,,,,,,,,3,0,3,0,,,,,5.604214499995578,,5.5928601999767125,5.604214499995578,6.403672399988864,6.393915999971796,,,,,,,,,,,,,,,,,,,,,,,,,,,,,,,,,,,,,,,,,,,,,,,,,,,,,001,2026-06-16_21h36.26.366,Teamprojekt,,2025.1.0,86.05281746269998,2026-06-16 21h36.30.190242 +0200,
,,,,,,,,,,,,,,,,,,,,,,,,,,6.3940443999599665,6.403672399988864,6.904052099969704,8.964578499959316,space,2.0532554000383243,None,,,,,,,,,,,,,,,,,,,,,,,,,,,,,,,,,,,,,,,,,,,,,,001,2026-06-16_21h36.26.366,Teamprojekt,,2025.1.0,86.05281746269998,2026-06-16 21h36.30.190242 +0200,
0,0,0,Portal,0.08,f,0.9786293000215665,None,,,,,,,,,0,0,0,2,8.980448599962983,,12.037854099995457,12.047835999983363,12.847741900011897,12.837163299962413,,,,,,,,#1B9E77,RL,8.973903400008567,8.980448599962983,8.980448599962983,8.980448599962983,8.980448599962983,8.980448599962983,8.980448599962983,8.980448599962983,9.981841499975417,9.981841499975417,9.981841499975417,9.981841499975417,9.981841499975417,9.981841499975417,9.981841499975417,9.971373999956995,9.97142239997629,9.981841499975417,10.05928419996053,10.049086199956946,10.053184499964118,10.05928419996053,10.05928419996053,10.05928419996053,10.05928419996053,10.05928419996053,10.05928419996053,10.05928419996053,11.048545599973295,11.05951880000066,11.05951880000066,11.05951880000066,11.05951880000066,11.05951880000066,11.05951880000066,12.037785699998494,f,0.9786293000215665,None,,,,,001,2026-06-16_21h36.26.366,Teamprojekt,,2025.1.0,86.05281746269998,2026-06-16 21h36.30.190242 +0200,
1,1,0,Standard,0.16,f,0.3794766000355594,None,,,,,,,,,0,1,1,11,12.847741900011897,,15.38257999997586,15.392690600012429,16.193022699968424,16.182145899976604,,,,,,,,#984EA3,RL,12.840485299995635,12.847741900011897,12.847741900011897,12.847741900011897,12.847741900011897,12.847741900011897,12.847741900011897,12.847741900011897,13.8483102999744,13.8483102999744,13.8483102999744,13.8483102999744,13.8483102999744,13.8483102999744,13.8483102999744,13.83757199998945,13.837609999987762,13.8483102999744,14.004098300007172,13.992682499985676,13.995990199968219,14.004098300007172,14.004098300007172,14.004098300007172,14.004098300007172,14.004098300007172,14.004098300007172,14.004098300007172,14.992935399990529,15.004423699981999,15.004423699981999,15.004423699981999,15.004423699981999,15.004423699981999,15.004423699981999,15.382482299988624,f,0.3794766000355594,None,,,,,001,2026-06-16_21h36.26.366,Teamprojekt,,2025.1.0,86.05281746269998,2026-06-16 21h36.30.190242 +0200,
2,2,0,Barrier,0.08,f,4.207069799944293,None,,,,,,,,,0,2,2,6,16.193022699968424,,22.470977499964647,22.480634799983818,23.280643399979454,23.26963449997129,,,,,,,,#F781BF,LR,16.18610869999975,16.193022699968424,16.193022699968424,16.193022699968424,16.193022699968424,16.193022699968424,16.193022699968424,16.193022699968424,17.191960799973458,17.191960799973458,17.191960799973458,17.191960799973458,17.191960799973458,17.191960799973458,17.191960799973458,17.182124999992084,17.182174799963832,17.191960799973458,17.269693200010806,17.25897069997154,17.26212219998706,17.269693200010806,17.269693200010806,17.269693200010806,17.269693200010806,17.269693200010806,17.269693200010806,17.269693200010806,18.25957679998828,18.27069959999062,18.27069959999062,18.27069959999062,18.27069959999062,18.27069959999062,18.27069959999062,22.470884100010153,f,4.207069799944293,None,,,,,001,2026-06-16_21h36.26.366,Teamprojekt,,2025.1.0,86.05281746269998,2026-06-16 21h36.30.190242 +0200,
3,3,0,Barrier,0.02,j,1.1928063000086695,None,,,,,,,,,0,3,3,5,23.280643399979454,,26.493226499995217,26.50280129996827,27.303563499997836,27.292642399959732,,,,,,,,#1B9E77,LR,23.27259419998154,23.280643399979454,23.280643399979454,23.280643399979454,23.280643399979454,23.280643399979454,23.280643399979454,23.280643399979454,24.28055869997479,24.28055869997479,24.28055869997479,24.28055869997479,24.28055869997479,24.28055869997479,24.28055869997479,24.270664699957706,24.27071089996025,24.28055869997479,24.302683799993247,24.292279999994207,24.295253699994646,24.302683799993247,24.302683799993247,24.302683799993247,24.302683799993247,24.302683799993247,24.302683799993247,24.302683799993247,25.29154369997559,25.30372719996376,25.30372719996376,25.30372719996376,25.30372719996376,25.30372719996376,25.30372719996376,26.49313419999089,j,1.1928063000086695,None,,,,,001,2026-06-16_21h36.26.366,Teamprojekt,,2025.1.0,86.05281746269998,2026-06-16 21h36.30.190242 +0200,
4,4,0,Barrier,0,f,0.5571005999809131,None,,,,,,,,,0,4,4,4,27.303563499997836,,29.859955899999477,29.869088699982967,30.669263699965086,30.659158999973442,,,,,,,,#377EB8,LR,27.29582549998304,27.303563499997836,27.303563499997836,27.303563499997836,27.303563499997836,27.303563499997836,27.303563499997836,27.303563499997836,28.30391849996522,28.30391849996522,28.30391849996522,28.30391849996522,28.30391849996522,28.30391849996522,28.30391849996522,28.292883299989626,28.29293499997584,28.30391849996522,28.30391849996522,28.29305869998643,28.296709799964447,28.30391849996522,28.30391849996522,28.30391849996522,28.30391849996522,28.30391849996522,28.30391849996522,28.30391849996522,29.292124499974307,29.30250220000744,29.30250220000744,29.30250220000744,29.30250220000744,29.30250220000744,29.30250220000744,29.859709099982865,f,0.5571005999809131,None,,,,,001,2026-06-16_21h36.26.366,Teamprojekt,,2025.1.0,86.05281746269998,2026-06-16 21h36.30.190242 +0200,
5,5,0,Standard,0.02,j,0.42758499999763444,None,,,,,,,,,0,5,5,9,30.669263699965086,,33.11481649999041,33.124488900008146,33.924411999993026,33.9145801999839,,,,,,,,#F781BF,RL,30.662472099997103,30.669263699965086,30.669263699965086,30.669263699965086,30.669263699965086,30.669263699965086,30.669263699965086,30.669263699965086,31.669121099985205,31.669121099985205,31.669121099985205,31.669121099985205,31.669121099985205,31.669121099985205,31.669121099985205,31.658120799984317,31.65815480001038,31.669121099985205,31.691235699981917,31.680671499983873,31.68466949998401,31.691235699981917,31.691235699981917,31.691235699981917,31.691235699981917,31.691235699981917,31.691235699981917,31.691235699981917,32.68053359998157,32.691993799991906,32.691993799991906,32.691993799991906,32.691993799991906,32.691993799991906,32.691993799991906,33.114663999993354,j,0.42758499999763444,None,,,,,001,2026-06-16_21h36.26.366,Teamprojekt,,2025.1.0,86.05281746269998,2026-06-16 21h36.30.190242 +0200,
6,6,0,Standard,0.08,f,0.4677677999716252,None,,,,,,,,,0,6,6,10,33.924411999993026,,36.469155099999625,36.47989319998305,,37.26982300000964,,,,,,,,#4DAF4A,LR,33.917787299957126,33.924411999993026,33.924411999993026,33.924411999993026,33.924411999993026,33.924411999993026,33.924411999993026,33.924411999993026,34.92446979996748,34.92446979996748,34.92446979996748,34.92446979996748,34.92446979996748,34.92446979996748,34.92446979996748,34.914169600000605,34.91420860000653,34.92446979996748,35.00246899999911,34.99135769996792,34.99454300000798,35.00246899999911,35.00246899999911,35.00246899999911,35.00246899999911,35.00246899999911,35.00246899999911,35.00246899999911,35.991269599995576,36.00246609997703,36.00246609997703,36.00246609997703,36.00246609997703,36.00246609997703,36.00246609997703,36.46909259998938,f,0.4677677999716252,None,,,,,001,2026-06-16_21h36.26.366,Teamprojekt,,2025.1.0,86.05281746269998,2026-06-16 21h36.30.190242 +0200,
7,7,0,Portal,0,f,0.7980156000121497,None,,,,,,,,,0,7,7,0,37.280814500001725,,40.06993589998456,40.08038170001237,40.879664700012654,40.868639299995266,,,,,,,,#1B9E77,LR,37.27324640000006,37.280814500001725,37.280814500001725,37.280814500001725,37.280814500001725,37.280814500001725,37.280814500001725,37.280814500001725,38.28283330000704,38.28283330000704,38.28283330000704,38.28283330000704,38.28283330000704,38.28283330000704,38.28283330000704,38.270320200012065,38.27037489996292,38.28283330000704,38.28283330000704,38.27050499996403,38.27399139996851,38.28283330000704,38.28283330000704,38.28283330000704,38.28283330000704,38.28283330000704,38.28283330000704,38.28283330000704,39.26977169996826,39.27973079995718,39.27973079995718,39.27973079995718,39.27973079995718,39.27973079995718,39.27973079995718,40.06987259996822,f,0.7980156000121497,None,,,,,001,2026-06-16_21h36.26.366,Teamprojekt,,2025.1.0,86.05281746269998,2026-06-16 21h36.30.190242 +0200,
8,8,0,Standard,0,j,0.8722766999853775,None,,,,,,,,,0,8,8,8,40.879664700012654,,43.74765039997874,43.757226999965496,44.55716129997745,44.547135400003754,,,,,,,,#1B9E77,LR,40.871997500013094,40.879664700012654,40.879664700012654,40.879664700012654,40.879664700012654,40.879664700012654,40.879664700012654,40.879664700012654,41.879680199956056,41.879680199956056,41.879680199956056,41.879680199956056,41.879680199956056,41.879680199956056,41.879680199956056,41.8691162999603,41.86915270000463,41.879680199956056,41.879680199956056,41.8692449000082,41.87222009996185,41.879680199956056,41.879680199956056,41.879680199956056,41.879680199956056,41.879680199956056,41.879680199956056,41.879680199956056,42.86971080000512,42.87967739999294,42.87967739999294,42.87967739999294,42.87967739999294,42.87967739999294,42.87967739999294,43.74753829999827,j,0.8722766999853775,None,,,,,001,2026-06-16_21h36.26.366,Teamprojekt,,2025.1.0,86.05281746269998,2026-06-16 21h36.30.190242 +0200,
9,9,0,Portal,0.16,f,0.6711731999530457,None,,,,,,,,,0,9,9,3,44.55716129997745,,47.380132899968885,47.39174519997323,,48.18058960000053,,,,,,,,#A65628,RL,44.54983709997032,44.55716129997745,44.55716129997745,44.55716129997745,44.55716129997745,44.55716129997745,44.55716129997745,44.55716129997745,45.55825110001024,45.55825110001024,45.55825110001024,45.55825110001024,45.55825110001024,45.55825110001024,45.55825110001024,45.546418599959,45.546469199995045,45.55825110001024,45.71363829995971,45.70170859998325,45.705428099958226,45.71363829995971,45.71363829995971,45.71363829995971,45.71363829995971,45.71363829995971,45.71363829995971,45.71363829995971,46.702585399965756,46.71359989995835,46.71359989995835,46.71359989995835,46.71359989995835,46.71359989995835,46.71359989995835,47.38005599996541,f,0.6711731999530457,None,,,,,001,2026-06-16_21h36.26.366,Teamprojekt,,2025.1.0,86.05281746269998,2026-06-16 21h36.30.190242 +0200,
10,10,0,Barrier,0.16,f,0.7746918999473564,None,,,,,,,,,0,10,10,7,48.190365199989174,,51.112789599981625,51.1245453999727,,51.913441799988504,,,,,,,,#E41A1C,RL,48.1840552999638,48.190365199989174,48.190365199989174,48.190365199989174,48.190365199989174,48.190365199989174,48.190365199989174,48.190365199989174,49.19136279996019,49.19136279996019,49.19136279996019,49.19136279996019,49.19136279996019,49.19136279996019,49.19136279996019,49.18044689996168,49.1805042999913,49.19136279996019,49.34690499998396,49.33605099999113,49.33978350000689,49.34690499998396,49.34690499998396,49.34690499998396,49.34690499998396,49.34690499998396,49.34690499998396,49.34690499998396,50.335787799966056,50.346434200007934,50.346434200007934,50.346434200007934,50.346434200007934,50.346434200007934,50.346434200007934,51.11272849998204,f,0.7746918999473564,None,,,,,001,2026-06-16_21h36.26.366,Teamprojekt,,2025.1.0,86.05281746269998,2026-06-16 21h36.30.190242 +0200,
11,11,0,Portal,0.02,j,0.5313492999994196,None,,,,,,,,,0,11,11,1,51.92469999997411,,54.469370000006165,54.47890240000561,55.27984440000728,55.26795199996559,,,,,,,,#FF7F00,RL,51.917279099987354,51.92469999997411,51.92469999997411,51.92469999997411,51.92469999997411,51.92469999997411,51.92469999997411,51.92469999997411,52.92439269996248,52.92439269996248,52.92439269996248,52.92439269996248,52.92439269996248,52.92439269996248,52.92439269996248,52.91362529998878,52.91367529996205,52.92439269996248,52.94693299999926,52.934693499992136,52.93895079998765,52.94693299999926,52.94693299999926,52.94693299999926,52.94693299999926,52.94693299999926,52.94693299999926,52.94693299999926,53.93572329997551,53.946612300002016,53.946612300002016,53.946612300002016,53.946612300002016,53.946612300002016,53.946612300002016,54.4692751999828,j,0.5313492999994196,None,,,,,001,2026-06-16_21h36.26.366,Teamprojekt,,2025.1.0,86.05281746269998,2026-06-16 21h36.30.190242 +0200,
,,,,,,,,,,,,,,,,,,,,,,,,,,,,,,,,,,,,,,,,,,,,,,,,,,,,,,,,,,,,,,,,,,,,,,,,,,55.26804659998743,55.27984440000728,55.7684697000077,,,,,,,,,
