thisN,thisTrialN,thisRepN,conditions_practice,ISI_practice,keyPractice.keys,keyPractice.rt,keyPractice.duration,elementMotionDemo.thisRepN,elementMotionDemo.thisTrialN,elementMotionDemo.thisN,elementMotionDemo.thisIndex,groupMotionDemo.thisRepN,groupMotionDemo.thisTrialN,groupMotionDemo.thisN,groupMotionDemo.thisIndex,practiceLoop.thisRepN,practiceLoop.thisTrialN,practiceLoop.thisN,practiceLoop.thisIndex,thisRow.t,notes,InstructionScreen.started,textInstructions.started,keyInstructionContinue.started,InstructionScreen.stopped,keyInstructionContinue.keys,keyInstructionContinue.rt,keyInstructionContinue.duration,ElementExampleFrame1.started,ternusExampleLeft.started,ternusExampleMiddle.started,ternusExampleRight.started,FixationCrossExample.started,ternusExampleLeft.stopped,ternusExampleMiddle.stopped,ternusExampleRight.stopped,FixationCrossExample.stopped,ElementExampleFrame1.stopped,ElementExampleFrame2.started,ternusExampleLeft_2.started,ternusExampleMiddle_2.started,ternusExampleRight_2.started,FixationCrossExample_2.started,ternusExampleLeft_2.stopped,ternusExampleMiddle_2.stopped,ternusExampleRight_2.stopped,FixationCrossExample_2.stopped,ElementExampleFrame2.stopped,blank800.started,FixationCrossBlank800.started,FixationCrossBlank800.stopped,blank800.stopped,elementMotionExplained.started,keyElementMotionExplained.started,textElementMotion.started,elementMotionExplained.stopped,keyElementMotionExplained.keys,keyElementMotionExplained.rt,keyElementMotionExplained.duration,blank160.started,FixationCrossBlank160.started,FixationCrossBlank160.stopped,blank160.stopped,groupMotionExplained.started,keyGroupMotionExplained.started,textGroupMotion.started,groupMotionExplained.stopped,keyGroupMotionExplained.keys,keyGroupMotionExplained.rt,keyGroupMotionExplained.duration,causalColor,practiceFrame1.started,ternusObjLeftPrac.started,ternusObjMiddlePrac.started,ternusObjRightPrac.started,FixationCrossPrac.started,portalLeftPrac.started,portalRightPrac.started,BarrierPrac.started,ternusObjLeftPrac.stopped,ternusObjMiddlePrac.stopped,ternusObjRightPrac.stopped,FixationCrossPrac.stopped,portalLeftPrac.stopped,portalRightPrac.stopped,BarrierPrac.stopped,practiceFrame1.stopped,blankISI_Practice.started,FixationCrossBlankPractice.started,FixationCrossBlankPractice.stopped,blankISI_Practice.stopped,practiceFrame2.started,keyPractice.started,ternusObjLeftPrac_2.started,ternusObjMiddlePrac_2.started,ternusObjRightPrac_2.started,FixationCrossPrac_2.started,portalLeftPrac_2.started,portalRightPrac_2.started,BarrierPrac_2.started,ternusObjLeftPrac_2.stopped,ternusObjMiddlePrac_2.stopped,ternusObjRightPrac_2.stopped,portalLeftPrac_2.stopped,portalRightPrac_2.stopped,BarrierPrac_2.stopped,practiceFrame2.stopped,practiceLoop.keyPractice.keys,practiceLoop.keyPractice.rt,practiceLoop.keyPractice.duration,StartScreen.started,textStartMessage.started,keyStart.started,participant,session,date,expName,expVersion,psychopyVersion,frameRate,expStart,
,,,,,,,,,,,,,,,,,,,,,,0.0033685999806039035,0.007639000017661601,0.007639000017661601,1.4819281999953091,space,1.4680257000145502,None,,,,,,,,,,,,,,,,,,,,,,,,,,,,,,,,,,,,,,,,,,,,,,,,,,,,,,,,,,,,,,,,,,,,,,,,,,,,,,,,,,,,,,,001,2026-06-16_18h00.04.312,Teamprojekt,,2025.1.0,86.42967651363477,2026-06-16 18h00.08.383529 +0200,
0,0,0,,,,,,0,0,0,0,,,,,,,,,1.4877128999796696,,,,,,,,,1.482327500008978,1.4877128999796696,1.4877128999796696,1.4877128999796696,1.4877128999796696,1.6878457000129856,1.6878457000129856,1.6878457000129856,1.6878457000129856,1.6767195999855176,1.676750999991782,1.6878457000129856,1.6878457000129856,1.6878457000129856,1.6878457000129856,1.8877997000236064,1.8877997000236064,1.8877997000236064,1.8877997000236064,1.877610499970615,1.8776688000070862,1.8877997000236064,2.6871915999799967,2.676303900021594,,,,,,,,,,,,,,,,,,,,,,,,,,,,,,,,,,,,,,,,,,,,,,,,,,,,,,,,,,,,,,,001,2026-06-16_18h00.04.312,Teamprojekt,,2025.1.0,86.42967651363477,2026-06-16 18h00.08.383529 +0200,
1,0,1,,,,,,1,0,1,0,,,,,,,,,2.6871915999799967,,,,,,,,,2.676440300012473,2.6871915999799967,2.6871915999799967,2.6871915999799967,2.6871915999799967,2.887112899974454,2.887112899974454,2.887112899974454,2.887112899974454,2.876865300000645,2.8769198000081815,2.887112899974454,2.887112899974454,2.887112899974454,2.887112899974454,3.08734829997411,3.08734829997411,3.08734829997411,3.08734829997411,3.076559700013604,3.0766073999693617,3.08734829997411,,3.8771680999780074,,,,,,,,,,,,,,,,,,,,,,,,,,,,,,,,,,,,,,,,,,,,,,,,,,,,,,,,,,,,,,,001,2026-06-16_18h00.04.312,Teamprojekt,,2025.1.0,86.42967651363477,2026-06-16 18h00.08.383529 +0200,
2,0,2,,,,,,2,0,2,0,,,,,,,,,3.887758099997882,,,,,,,,,3.87846159999026,3.887758099997882,3.887758099997882,3.887758099997882,3.887758099997882,4.088003000011668,4.088003000011668,4.088003000011668,4.088003000011668,4.077345400000922,4.077378600020893,4.088003000011668,4.088003000011668,4.088003000011668,4.088003000011668,4.288378199969884,4.288378199969884,4.288378199969884,4.288378199969884,4.2772123999893665,4.277255899971351,4.288378199969884,5.087875499972142,5.076535500003956,,,,,,,,,,,,,,,,,,,,,,,,,,,,,,,,,,,,,,,,,,,,,,,,,,,,,,,,,,,,,,,001,2026-06-16_18h00.04.312,Teamprojekt,,2025.1.0,86.42967651363477,2026-06-16 18h00.08.383529 +0200,
3,0,3,,,,,,3,0,3,0,,,,,,,,,5.087875499972142,,,,,,,,,5.0766971000120975,5.087875499972142,5.087875499972142,5.087875499972142,5.087875499972142,5.288089399982709,5.288089399982709,5.288089399982709,5.288089399982709,5.276364999997895,5.2764052000129595,5.288089399982709,5.288089399982709,5.288089399982709,5.288089399982709,5.487991300004069,5.487991300004069,5.487991300004069,5.487991300004069,5.4770711999735795,5.477114400011487,5.487991300004069,6.287280099990312,6.276290100009646,,,,,,,,,,,,,,,,,,,,,,,,,,,,,,,,,,,,,,,,,,,,,,,,,,,,,,,,,,,,,,,001,2026-06-16_18h00.04.312,Teamprojekt,,2025.1.0,86.42967651363477,2026-06-16 18h00.08.383529 +0200,
,,,,,,,,,,,,,,,,,,,,,,,,,,,,,,,,,,,,,,,,,,,,,,,,,,,,,6.276385999983177,6.287280099990312,6.287280099990312,8.975926099985372,space,2.6798338999506086,None,,,,,,,,,,,,,,,,,,,,,,,,,,,,,,,,,,,,,,,,,,,,,,,,,,,,,,,,001,2026-06-16_18h00.04.312,Teamprojekt,,2025.1.0,86.42967651363477,2026-06-16 18h00.08.383529 +0200,
0,0,0,,,,,,,,,,0,0,0,0,,,,,8.987426100007724,,,,,,,,,8.976223499979824,8.987426100007724,8.987426100007724,8.987426100007724,8.987426100007724,9.187036100018304,9.187036100018304,9.187036100018304,9.187036100018304,9.176077999989502,9.331854699994437,9.343565699993633,9.343565699993633,9.343565699993633,9.343565699993633,9.542536699969787,9.542536699969787,9.542536699969787,9.542536699969787,9.532776499981992,9.53280819999054,9.542536699969787,10.343948099995032,10.33232109999517,,,,,,,,9.176109199994244,9.187036100018304,9.343565699993633,9.33182520000264,,,,,,,,,,,,,,,,,,,,,,,,,,,,,,,,,,,,,,,,,,,,,,,,,,,,001,2026-06-16_18h00.04.312,Teamprojekt,,2025.1.0,86.42967651363477,2026-06-16 18h00.08.383529 +0200,
1,0,1,,,,,,,,,,1,0,1,0,,,,,10.343948099995032,,,,,,,,,10.33245689998148,10.343948099995032,10.343948099995032,10.343948099995032,10.343948099995032,10.542284699971788,10.542284699971788,10.542284699971788,10.542284699971788,10.531593599996995,10.68877569999313,10.698823700018693,10.698823700018693,10.698823700018693,10.698823700018693,10.897855599992909,10.897855599992909,10.897855599992909,10.897855599992909,10.887115499994252,10.887151499977335,10.897855599992909,11.69863970001461,11.687230199982878,,,,,,,,10.531626900017727,10.542284699971788,10.698823700018693,10.688746800005902,,,,,,,,,,,,,,,,,,,,,,,,,,,,,,,,,,,,,,,,,,,,,,,,,,,,001,2026-06-16_18h00.04.312,Teamprojekt,,2025.1.0,86.42967651363477,2026-06-16 18h00.08.383529 +0200,
2,0,2,,,,,,,,,,2,0,2,0,,,,,11.69863970001461,,,,,,,,,11.687367699982133,11.69863970001461,11.69863970001461,11.69863970001461,11.69863970001461,11.898379000020213,11.898379000020213,11.898379000020213,11.898379000020213,11.888348900014535,12.042737699986901,12.053470699989703,12.053470699989703,12.053470699989703,12.053470699989703,12.25354399997741,12.25354399997741,12.25354399997741,12.25354399997741,12.242789299983997,12.24282129999483,12.25354399997741,13.053755100001581,13.042923400003929,,,,,,,,11.8884058999829,11.898379000020213,12.053470699989703,12.042709400004242,,,,,,,,,,,,,,,,,,,,,,,,,,,,,,,,,,,,,,,,,,,,,,,,,,,,001,2026-06-16_18h00.04.312,Teamprojekt,,2025.1.0,86.42967651363477,2026-06-16 18h00.08.383529 +0200,
3,0,3,,,,,,,,,,3,0,3,0,,,,,13.053755100001581,,,,,,,,,13.043138500011992,13.053755100001581,13.053755100001581,13.053755100001581,13.053755100001581,13.254261200025212,13.254261200025212,13.254261200025212,13.254261200025212,13.243212900008075,13.397924399992917,13.409715900023002,13.409715900023002,13.409715900023002,13.409715900023002,13.609308400016744,13.609308400016744,13.609308400016744,13.609308400016744,13.59884469996905,13.598890899971593,13.609308400016744,14.409477400011383,14.39848739997251,,,,,,,,13.243247799982782,13.254261200025212,13.409715900023002,13.397897200018633,,,,,,,,,,,,,,,,,,,,,,,,,,,,,,,,,,,,,,,,,,,,,,,,,,,,001,2026-06-16_18h00.04.312,Teamprojekt,,2025.1.0,86.42967651363477,2026-06-16 18h00.08.383529 +0200,
,,,,,,,,,,,,,,,,,,,,,,,,,,,,,,,,,,,,,,,,,,,,,,,,,,,,,,,,,,,,,,,,14.39862459996948,14.409477400011383,14.409477400011383,22.39747059997171,space,7.98473309999099,None,,,,,,,,,,,,,,,,,,,,,,,,,,,,,,,,,,,,,,,,,,,,,001,2026-06-16_18h00.04.312,Teamprojekt,,2025.1.0,86.42967651363477,2026-06-16 18h00.08.383529 +0200,
0,0,0,Barrier,0.08,j,1.8113729999749921,None,,,,,,,,,0,0,0,6,22.41216439998243,,,,,,,,,,,,,,,,,,,,,,,,,,,,,24.508569700003136,24.520281700009946,25.31939090002561,25.308513599971775,,,,,,,,,,,,,,,,,,,yellow,22.405202800000552,22.41216439998243,22.41216439998243,22.41216439998243,22.41216439998243,22.41216439998243,22.41216439998243,22.41216439998243,22.608376500022132,22.608376500022132,22.608376500022132,22.608376500022132,22.608376500022132,22.608376500022132,22.608376500022132,22.59794619999593,22.59800030000042,22.608376500022132,22.686022599984426,22.67575679998845,22.67702190001728,22.686022599984426,22.686022599984426,22.686022599984426,22.686022599984426,22.686022599984426,22.686022599984426,22.686022599984426,22.686022599984426,22.88717619999079,22.88717619999079,22.88717619999079,22.88717619999079,22.88717619999079,22.88717619999079,24.50850719999289,j,1.8113729999749921,None,,,,,001,2026-06-16_18h00.04.312,Teamprojekt,,2025.1.0,86.42967651363477,2026-06-16 18h00.08.383529 +0200,
1,1,0,Portal,0,j,1.5645112000056542,None,,,,,,,,,0,1,1,0,25.31939090002561,,,,,,,,,,,,,,,,,,,,,,,,,,,,,27.086406000016723,27.09804740000982,,27.886850800015964,,,,,,,,,,,,,,,,,,,green,25.309686699998565,25.31939090002561,25.31939090002561,25.31939090002561,25.31939090002561,25.31939090002561,25.31939090002561,25.31939090002561,25.51980760000879,25.51980760000879,25.51980760000879,25.51980760000879,25.51980760000879,25.51980760000879,25.51980760000879,25.50870649999706,25.508758899988607,25.51980760000879,25.51980760000879,25.508853500010446,25.50992129999213,25.51980760000879,25.51980760000879,25.51980760000879,25.51980760000879,25.51980760000879,25.51980760000879,25.51980760000879,25.51980760000879,25.72032099997159,25.72032099997159,25.72032099997159,25.72032099997159,25.72032099997159,25.72032099997159,27.08634350000648,j,1.5645112000056542,None,,,,,001,2026-06-16_18h00.04.312,Teamprojekt,,2025.1.0,86.42967651363477,2026-06-16 18h00.08.383529 +0200,
2,2,0,Standard,0.02,f,1.0215419000014663,None,,,,,,,,,0,2,2,9,27.896953799994662,,,,,,,,,,,,,,,,,,,,,,,,,,,,,29.14279890002217,29.15252140001394,29.952422800008208,29.942446500004735,,,,,,,,,,,,,,,,,,,blue,27.88816279999446,27.896953799994662,27.896953799994662,27.896953799994662,27.896953799994662,27.896953799994662,27.896953799994662,27.896953799994662,28.097834400017746,28.097834400017746,28.097834400017746,28.097834400017746,28.097834400017746,28.097834400017746,28.097834400017746,28.087256699975114,28.087310099974275,28.097834400017746,28.120117100013886,28.108269300020766,28.109454500023276,28.120117100013886,28.120117100013886,28.120117100013886,28.120117100013886,28.120117100013886,28.120117100013886,28.120117100013886,28.120117100013886,28.32010640000226,28.32010640000226,28.32010640000226,28.32010640000226,28.32010640000226,28.32010640000226,29.14270279998891,f,1.0215419000014663,None,,,,,001,2026-06-16_18h00.04.312,Teamprojekt,,2025.1.0,86.42967651363477,2026-06-16 18h00.08.383529 +0200,
3,3,0,Portal,0.16,j,1.0132205999689177,None,,,,,,,,,0,3,3,3,29.952422800008208,,,,,,,,,,,,,,,,,,,,,,,,,,,,,31.3309239000082,31.34230459999526,32.14204040000914,32.13043199997628,,,,,,,,,,,,,,,,,,,green,29.94372119999025,29.952422800008208,29.952422800008208,29.952422800008208,29.952422800008208,29.952422800008208,29.952422800008208,29.952422800008208,30.153432100021746,30.153432100021746,30.153432100021746,30.153432100021746,30.153432100021746,30.153432100021746,30.153432100021746,30.1425758000114,30.142630900023505,30.153432100021746,30.308597399969585,30.297530899988487,30.298750500020105,30.308597399969585,30.308597399969585,30.308597399969585,30.308597399969585,30.308597399969585,30.308597399969585,30.308597399969585,30.308597399969585,30.508824999968056,30.508824999968056,30.508824999968056,30.508824999968056,30.508824999968056,30.508824999968056,31.33082309999736,j,1.0132205999689177,None,,,,,001,2026-06-16_18h00.04.312,Teamprojekt,,2025.1.0,86.42967651363477,2026-06-16 18h00.08.383529 +0200,
4,4,0,Barrier,0.02,j,1.1763860000064597,None,,,,,,,,,0,4,4,5,32.14204040000914,,,,,,,,,,,,,,,,,,,,,,,,,,,,,33.54247119999491,33.5521807000041,34.35232250002446,34.34143909998238,,,,,,,,,,,,,,,,,,,red,32.13207250001142,32.14204040000914,32.14204040000914,32.14204040000914,32.14204040000914,32.14204040000914,32.14204040000914,32.14204040000914,32.34130779997213,32.34130779997213,32.34130779997213,32.34130779997213,32.34130779997213,32.34130779997213,32.34130779997213,32.33134889998473,32.33141169999726,32.34130779997213,32.36336359998677,32.35346199997002,32.35482140001841,32.36336359998677,32.36336359998677,32.36336359998677,32.36336359998677,32.36336359998677,32.36336359998677,32.36336359998677,32.36336359998677,32.56427630002145,32.56427630002145,32.56427630002145,32.56427630002145,32.56427630002145,32.56427630002145,33.54240400000708,j,1.1763860000064597,None,,,,,001,2026-06-16_18h00.04.312,Teamprojekt,,2025.1.0,86.42967651363477,2026-06-16 18h00.08.383529 +0200,
5,5,0,Standard,0.08,f,0.6572979000047781,None,,,,,,,,,0,5,5,10,34.35232250002446,,,,,,,,,,,,,,,,,,,,,,,,,,,,,35.29717069998151,35.30780720000621,,36.097578099987004,,,,,,,,,,,,,,,,,,,orange,34.34293849999085,34.35232250002446,34.35232250002446,34.35232250002446,34.35232250002446,34.35232250002446,34.35232250002446,34.35232250002446,34.55306599999312,34.55306599999312,34.55306599999312,34.55306599999312,34.55306599999312,34.55306599999312,34.55306599999312,34.54229459998896,34.54234009998618,34.55306599999312,34.62987950001843,34.6201982999919,34.6216451000073,34.62987950001843,34.62987950001843,34.62987950001843,34.62987950001843,34.62987950001843,34.62987950001843,34.62987950001843,34.62987950001843,34.830443000013474,34.830443000013474,34.830443000013474,34.830443000013474,34.830443000013474,34.830443000013474,35.29707779997261,f,0.6572979000047781,None,,,,,001,2026-06-16_18h00.04.312,Teamprojekt,,2025.1.0,86.42967651363477,2026-06-16 18h00.08.383529 +0200,
6,6,0,Portal,0.08,j,0.7571990999858826,None,,,,,,,,,0,6,6,2,36.1075594999711,,,,,,,,,,,,,,,,,,,,,,,,,,,,,37.15363710001111,37.16356369998539,37.9630570000154,37.95282760000555,,,,,,,,,,,,,,,,,,,orange,36.09925989998737,36.1075594999711,36.1075594999711,36.1075594999711,36.1075594999711,36.1075594999711,36.1075594999711,36.1075594999711,36.30857220001053,36.30857220001053,36.30857220001053,36.30857220001053,36.30857220001053,36.30857220001053,36.30857220001053,36.29805460001808,36.29810559999896,36.30857220001053,36.38573450001422,36.37443889997667,36.375505100004375,36.38573450001422,36.38573450001422,36.38573450001422,36.38573450001422,36.38573450001422,36.38573450001422,36.38573450001422,36.38573450001422,36.58554739999818,36.58554739999818,36.58554739999818,36.58554739999818,36.58554739999818,36.58554739999818,37.15354650001973,j,0.7571990999858826,None,,,,,001,2026-06-16_18h00.04.312,Teamprojekt,,2025.1.0,86.42967651363477,2026-06-16 18h00.08.383529 +0200,
7,7,0,Standard,0,f,0.9274448999785818,None,,,,,,,,,0,7,7,8,37.9630570000154,,,,,,,,,,,,,,,,,,,,,,,,,,,,,39.09787110000616,39.10760450002272,39.90750640002079,39.89681700000074,,,,,,,,,,,,,,,,,,,yellow,37.95391420001397,37.9630570000154,37.9630570000154,37.9630570000154,37.9630570000154,37.9630570000154,37.9630570000154,37.9630570000154,38.16299360000994,38.16299360000994,38.16299360000994,38.16299360000994,38.16299360000994,38.16299360000994,38.16299360000994,38.15236589999404,38.15241959999548,38.16299360000994,38.16299360000994,38.152573800005484,38.15371949999826,38.16299360000994,38.16299360000994,38.16299360000994,38.16299360000994,38.16299360000994,38.16299360000994,38.16299360000994,38.16299360000994,38.363095699984115,38.363095699984115,38.363095699984115,38.363095699984115,38.363095699984115,38.363095699984115,39.097781700023916,f,0.9274448999785818,None,,,,,001,2026-06-16_18h00.04.312,Teamprojekt,,2025.1.0,86.42967651363477,2026-06-16 18h00.08.383529 +0200,
8,8,0,Barrier,0,f,1.820202800037805,None,,,,,,,,,0,8,8,4,39.90750640002079,,,,,,,,,,,,,,,,,,,,,,,,,,,,,41.931037199974526,41.94151239999337,42.74054400000023,42.72963939997135,,,,,,,,,,,,,,,,,,,purple,39.89823469996918,39.90750640002079,39.90750640002079,39.90750640002079,39.90750640002079,39.90750640002079,39.90750640002079,39.90750640002079,40.10734869999578,40.10734869999578,40.10734869999578,40.10734869999578,40.10734869999578,40.10734869999578,40.10734869999578,40.0977229999844,40.09778609999921,40.10734869999578,40.10734869999578,40.097938999999315,40.09977580001578,40.10734869999578,40.10734869999578,40.10734869999578,40.10734869999578,40.10734869999578,40.10734869999578,40.10734869999578,40.10734869999578,40.3082499000011,40.3082499000011,40.3082499000011,40.3082499000011,40.3082499000011,40.3082499000011,41.930933199997526,f,1.820202800037805,None,,,,,001,2026-06-16_18h00.04.312,Teamprojekt,,2025.1.0,86.42967651363477,2026-06-16 18h00.08.383529 +0200,
9,9,0,Standard,0.16,j,1.2567710999865085,None,,,,,,,,,0,9,9,11,42.74054400000023,,,,,,,,,,,,,,,,,,,,,,,,,,,,,44.36333750002086,44.375325999979395,,45.163787199999206,,,,,,,,,,,,,,,,,,,yellow,42.731126600003336,42.74054400000023,42.74054400000023,42.74054400000023,42.74054400000023,42.74054400000023,42.74054400000023,42.74054400000023,42.94128769997042,42.94128769997042,42.94128769997042,42.94128769997042,42.94128769997042,42.94128769997042,42.94128769997042,42.930500000016764,42.93053549999604,42.94128769997042,43.096088299993426,43.086106100003235,43.087833199999295,43.096088299993426,43.096088299993426,43.096088299993426,43.096088299993426,43.096088299993426,43.096088299993426,43.096088299993426,43.096088299993426,43.29647709999699,43.29647709999699,43.29647709999699,43.29647709999699,43.29647709999699,43.29647709999699,44.363274800009094,j,1.2567710999865085,None,,,,,001,2026-06-16_18h00.04.312,Teamprojekt,,2025.1.0,86.42967651363477,2026-06-16 18h00.08.383529 +0200,
10,10,0,Barrier,0.16,j,2.2600746999960393,None,,,,,,,,,0,10,10,7,45.17449870001292,,,,,,,,,,,,,,,,,,,,,,,,,,,,,47.79697379999561,47.80808350001462,48.60689120000461,48.596990999998525,,,,,,,,,,,,,,,,,,,yellow,45.16512349998811,45.17449870001292,45.17449870001292,45.17449870001292,45.17449870001292,45.17449870001292,45.17449870001292,45.17449870001292,45.3747774999938,45.3747774999938,45.3747774999938,45.3747774999938,45.3747774999938,45.3747774999938,45.3747774999938,45.363450500008184,45.36351120000472,45.3747774999938,45.52947499998845,45.52002380002523,45.52121029997943,45.52947499998845,45.52947499998845,45.52947499998845,45.52947499998845,45.52947499998845,45.52947499998845,45.52947499998845,45.52947499998845,45.73023879999528,45.73023879999528,45.73023879999528,45.73023879999528,45.73023879999528,45.73023879999528,47.79691089998232,j,2.2600746999960393,None,,,,,001,2026-06-16_18h00.04.312,Teamprojekt,,2025.1.0,86.42967651363477,2026-06-16 18h00.08.383529 +0200,
11,11,0,Portal,0.02,f,1.6634869000408798,None,,,,,,,,,0,11,11,1,48.60689120000461,,,,,,,,,,,,,,,,,,,,,,,,,,,,,50.497165800014045,50.50778539996827,51.3075515999808,51.296344799979124,,,,,,,,,,,,,,,,,,,magenta,48.598314800008666,48.60689120000461,48.60689120000461,48.60689120000461,48.60689120000461,48.60689120000461,48.60689120000461,48.60689120000461,48.807130499975756,48.807130499975756,48.807130499975756,48.807130499975756,48.807130499975756,48.807130499975756,48.807130499975756,48.79717849998269,48.79723369999556,48.807130499975756,48.83044079999672,48.81989029998658,48.82166159996996,48.83044079999672,48.83044079999672,48.83044079999672,48.83044079999672,48.83044079999672,48.83044079999672,48.83044079999672,48.83044079999672,49.03018980001798,49.03018980001798,49.03018980001798,49.03018980001798,49.03018980001798,49.03018980001798,50.49707009998383,f,1.6634869000408798,None,,,,,001,2026-06-16_18h00.04.312,Teamprojekt,,2025.1.0,86.42967651363477,2026-06-16 18h00.08.383529 +0200,
,,,,,,,,,,,,,,,,,,,,,,,,,,,,,,,,,,,,,,,,,,,,,,,,,,,,,,,,,,,,,,,,,,,,,,,,,,,,,,,,,,,,,,,,,,,,,,,,,,,,,,,,,,,,,,,51.2965608999948,51.3075515999808,51.79660200001672,,,,,,,,,
