thisN,thisTrialN,thisRepN,conditions_practice,ISI_practice,condition,interstim_interval,key_resp.keys,key_resp.rt,key_resp.duration,elementMotionDemo.thisRepN,elementMotionDemo.thisTrialN,elementMotionDemo.thisN,elementMotionDemo.thisIndex,groupMotionDemo.thisRepN,groupMotionDemo.thisTrialN,groupMotionDemo.thisN,groupMotionDemo.thisIndex,practiceLoop.thisRepN,practiceLoop.thisTrialN,practiceLoop.thisN,practiceLoop.thisIndex,blockLoop.thisRepN,blockLoop.thisTrialN,blockLoop.thisN,blockLoop.thisIndex,trialLoop.thisRepN,trialLoop.thisTrialN,trialLoop.thisN,trialLoop.thisIndex,thisRow.t,notes,blank800.started,FixationCrossBlank800.started,FixationCrossBlank800.stopped,blank800.stopped,StartScreen.started,textStartMessage.started,keyStart.started,StartScreen.stopped,keyStart.keys,keyStart.rt,keyStart.duration,causalColor,direction,ternusFrame1.started,ternusObjLeft.started,ternusObjMiddle.started,ternusObjRight.started,FixationCross.started,portalLeft.started,portalRight.started,Barrier.started,ternusObjLeft.stopped,ternusObjMiddle.stopped,ternusObjRight.stopped,FixationCross.stopped,portalLeft.stopped,portalRight.stopped,Barrier.stopped,ternusFrame1.stopped,blankISI.started,FixationCrossBlank.started,FixationCrossBlank.stopped,blankISI.stopped,ternusFrame2.started,ternusObjLeft_2.started,ternusObjMiddle_2.started,ternusObjRight_2.started,FixationCross_2.started,portalLeft_2.started,portalRight_2.started,Barrier_2.started,key_resp.started,ternusObjLeft_2.stopped,ternusObjMiddle_2.stopped,ternusObjRight_2.stopped,portalLeft_2.stopped,portalRight_2.stopped,Barrier_2.stopped,ternusFrame2.stopped,trialLoop.key_resp.keys,trialLoop.key_resp.rt,trialLoop.key_resp.duration,blockBreak.started,keyBlockContinue.started,textBlockInstructions.started,participant,session,date,expName,expVersion,psychopyVersion,frameRate,expStart,
0,0,0,,,,,,,,0,0,0,0,,,,,,,,,,,,,,,,,0.00697679998120293,,0.00285499996971339,0.00697679998120293,0.8030024999752641,0.7914417999563739,,,,,,,,,,,,,,,,,,,,,,,,,,,,,,,,,,,,,,,,,,,,,,,,,,,,,001,2026-06-16_21h29.38.090,Teamprojekt,,2025.1.0,84.86781413238099,2026-06-16 21h29.42.696670 +0200,
1,0,1,,,,,,,,1,0,1,0,,,,,,,,,,,,,,,,,0.8030024999752641,,0.7917215999914333,0.8030024999752641,1.603458400000818,1.5910325999720953,,,,,,,,,,,,,,,,,,,,,,,,,,,,,,,,,,,,,,,,,,,,,,,,,,,,,001,2026-06-16_21h29.38.090,Teamprojekt,,2025.1.0,84.86781413238099,2026-06-16 21h29.42.696670 +0200,
2,0,2,,,,,,,,2,0,2,0,,,,,,,,,,,,,,,,,1.603458400000818,,1.5911666000029072,1.603458400000818,2.401660699979402,2.391656299994793,,,,,,,,,,,,,,,,,,,,,,,,,,,,,,,,,,,,,,,,,,,,,,,,,,,,,001,2026-06-16_21h29.38.090,Teamprojekt,,2025.1.0,84.86781413238099,2026-06-16 21h29.42.696670 +0200,
3,0,3,,,,,,,,3,0,3,0,,,,,,,,,,,,,,,,,2.401660699979402,,2.3917934999917634,2.401660699979402,3.2017399999895133,3.192644900002051,,,,,,,,,,,,,,,,,,,,,,,,,,,,,,,,,,,,,,,,,,,,,,,,,,,,,001,2026-06-16_21h29.38.090,Teamprojekt,,2025.1.0,84.86781413238099,2026-06-16 21h29.42.696670 +0200,
0,0,0,,,,,,,,,,,,0,0,0,0,,,,,,,,,,,,,3.2017399999895133,,3.193439800001215,3.2017399999895133,4.003589899977669,3.9923592999693938,,,,,,,,,,,,,,,,,,,,,,,,,,,,,,,,,,,,,,,,,,,,,,,,,,,,,001,2026-06-16_21h29.38.090,Teamprojekt,,2025.1.0,84.86781413238099,2026-06-16 21h29.42.696670 +0200,
1,0,1,,,,,,,,,,,,1,0,1,0,,,,,,,,,,,,,4.003589899977669,,3.992487999959849,4.003589899977669,4.8023030999465846,4.7916151999961585,,,,,,,,,,,,,,,,,,,,,,,,,,,,,,,,,,,,,,,,,,,,,,,,,,,,,001,2026-06-16_21h29.38.090,Teamprojekt,,2025.1.0,84.86781413238099,2026-06-16 21h29.42.696670 +0200,
2,0,2,,,,,,,,,,,,2,0,2,0,,,,,,,,,,,,,4.8023030999465846,,4.791790599992964,4.8023030999465846,5.602388799947221,5.591431399981957,,,,,,,,,,,,,,,,,,,,,,,,,,,,,,,,,,,,,,,,,,,,,,,,,,,,,001,2026-06-16_21h29.38.090,Teamprojekt,,2025.1.0,84.86781413238099,2026-06-16 21h29.42.696670 +0200,
3,0,3,,,,,,,,,,,,3,0,3,0,,,,,,,,,,,,,5.602388799947221,,5.591560199973173,5.602388799947221,6.402259399998002,6.3922820999869145,,,,,,,,,,,,,,,,,,,,,,,,,,,,,,,,,,,,,,,,,,,,,,,,,,,,,001,2026-06-16_21h29.38.090,Teamprojekt,,2025.1.0,84.86781413238099,2026-06-16 21h29.42.696670 +0200,
0,0,0,Portal,0.16,,,,,,,,,,,,,,0,0,0,3,,,,,,,,,6.402259399998002,,6.399134099949151,6.402259399998002,7.202270599955227,7.191445499949623,,,,,,,,,,,,,,,,,,,,,,,,,,,,,,,,,,,,,,,,,,,,,,,,,,,,,001,2026-06-16_21h29.38.090,Teamprojekt,,2025.1.0,84.86781413238099,2026-06-16 21h29.42.696670 +0200,
1,1,0,Standard,0,,,,,,,,,,,,,,0,1,1,8,,,,,,,,,7.202270599955227,,7.1916234999662265,7.202270599955227,8.002390699984971,7.991587699973024,,,,,,,,,,,,,,,,,,,,,,,,,,,,,,,,,,,,,,,,,,,,,,,,,,,,,001,2026-06-16_21h29.38.090,Teamprojekt,,2025.1.0,84.86781413238099,2026-06-16 21h29.42.696670 +0200,
2,2,0,Portal,0,,,,,,,,,,,,,,0,2,2,0,,,,,,,,,8.002390699984971,,7.991776899958495,8.002390699984971,8.803064699983224,8.791928699996788,,,,,,,,,,,,,,,,,,,,,,,,,,,,,,,,,,,,,,,,,,,,,,,,,,,,,001,2026-06-16_21h29.38.090,Teamprojekt,,2025.1.0,84.86781413238099,2026-06-16 21h29.42.696670 +0200,
3,3,0,Standard,0.02,,,,,,,,,,,,,,0,3,3,9,,,,,,,,,8.803064699983224,,8.79211119998945,8.803064699983224,9.603634500002954,9.59305470000254,,,,,,,,,,,,,,,,,,,,,,,,,,,,,,,,,,,,,,,,,,,,,,,,,,,,,001,2026-06-16_21h29.38.090,Teamprojekt,,2025.1.0,84.86781413238099,2026-06-16 21h29.42.696670 +0200,
4,4,0,Barrier,0,,,,,,,,,,,,,,0,4,4,4,,,,,,,,,9.603634500002954,,9.593267399992328,9.603634500002954,10.40204089996405,10.39131409995025,,,,,,,,,,,,,,,,,,,,,,,,,,,,,,,,,,,,,,,,,,,,,,,,,,,,,001,2026-06-16_21h29.38.090,Teamprojekt,,2025.1.0,84.86781413238099,2026-06-16 21h29.42.696670 +0200,
5,5,0,Standard,0.08,,,,,,,,,,,,,,0,5,5,10,,,,,,,,,10.40204089996405,,10.391449199989438,10.40204089996405,11.202958999958355,11.191165999975055,,,,,,,,,,,,,,,,,,,,,,,,,,,,,,,,,,,,,,,,,,,,,,,,,,,,,001,2026-06-16_21h29.38.090,Teamprojekt,,2025.1.0,84.86781413238099,2026-06-16 21h29.42.696670 +0200,
6,6,0,Standard,0.16,,,,,,,,,,,,,,0,6,6,11,,,,,,,,,11.202958999958355,,11.191313799994532,11.202958999958355,12.003051699954085,11.99222719995305,,,,,,,,,,,,,,,,,,,,,,,,,,,,,,,,,,,,,,,,,,,,,,,,,,,,,001,2026-06-16_21h29.38.090,Teamprojekt,,2025.1.0,84.86781413238099,2026-06-16 21h29.42.696670 +0200,
7,7,0,Barrier,0.08,,,,,,,,,,,,,,0,7,7,6,,,,,,,,,12.003051699954085,,11.992362099990714,12.003051699954085,12.802611299965065,12.791735899983905,,,,,,,,,,,,,,,,,,,,,,,,,,,,,,,,,,,,,,,,,,,,,,,,,,,,,001,2026-06-16_21h29.38.090,Teamprojekt,,2025.1.0,84.86781413238099,2026-06-16 21h29.42.696670 +0200,
8,8,0,Barrier,0.02,,,,,,,,,,,,,,0,8,8,5,,,,,,,,,12.802611299965065,,12.791918899980374,12.802611299965065,13.602737199980766,13.591230799967889,,,,,,,,,,,,,,,,,,,,,,,,,,,,,,,,,,,,,,,,,,,,,,,,,,,,,001,2026-06-16_21h29.38.090,Teamprojekt,,2025.1.0,84.86781413238099,2026-06-16 21h29.42.696670 +0200,
9,9,0,Barrier,0.16,,,,,,,,,,,,,,0,9,9,7,,,,,,,,,13.602737199980766,,13.591412899957504,13.602737199980766,14.401842399965972,14.391584199969657,,,,,,,,,,,,,,,,,,,,,,,,,,,,,,,,,,,,,,,,,,,,,,,,,,,,,001,2026-06-16_21h29.38.090,Teamprojekt,,2025.1.0,84.86781413238099,2026-06-16 21h29.42.696670 +0200,
10,10,0,Portal,0.08,,,,,,,,,,,,,,0,10,10,2,,,,,,,,,14.401842399965972,,14.391717799997423,14.401842399965972,15.202024899946991,15.19139669998549,,,,,,,,,,,,,,,,,,,,,,,,,,,,,,,,,,,,,,,,,,,,,,,,,,,,,001,2026-06-16_21h29.38.090,Teamprojekt,,2025.1.0,84.86781413238099,2026-06-16 21h29.42.696670 +0200,
11,11,0,Portal,0.02,,,,,,,,,,,,,,0,11,11,1,,,,,,,,,15.202024899946991,,15.191599299956579,15.202024899946991,16.001850300002843,15.991032899997663,,,,,,,,,,,,,,,,,,,,,,,,,,,,,,,,,,,,,,,,,,,,,,,,,,,,,001,2026-06-16_21h29.38.090,Teamprojekt,,2025.1.0,84.86781413238099,2026-06-16 21h29.42.696670 +0200,
,,,,,,,,,,,,,,,,,,,,,,,,,,,,,,,,,,,,15.991163500002585,16.001850300002843,16.50170659995638,33.107366999960504,space,16.591561100038234,None,,,,,,,,,,,,,,,,,,,,,,,,,,,,,,,,,,,,,,,,,,,,,,001,2026-06-16_21h29.38.090,Teamprojekt,,2025.1.0,84.86781413238099,2026-06-16 21h29.42.696670 +0200,
0,0,0,,,Portal,0,f,0.45339049998437986,None,,,,,,,,,,,,,0,0,0,0,0,0,0,0,33.12413589999778,,35.569401899992954,35.58025949995499,,36.369700099981856,,,,,,,,#4DAF4A,LR,33.117486999952234,33.12413589999778,33.12413589999778,33.12413589999778,33.12413589999778,33.12413589999778,33.12413589999778,33.12413589999778,34.12726149999071,34.12726149999071,34.12726149999071,34.12726149999071,34.12726149999071,34.12726149999071,34.12726149999071,34.11435079999501,34.11438639997505,34.12726149999071,34.12726149999071,34.11447339999722,34.1184818999609,34.12726149999071,34.12726149999071,34.12726149999071,34.12726149999071,34.12726149999071,34.12726149999071,34.12726149999071,35.11354079999728,35.12527919997228,35.12527919997228,35.12527919997228,35.12527919997228,35.12527919997228,35.12527919997228,35.569340499991085,f,0.45339049998437986,None,,,,,001,2026-06-16_21h29.38.090,Teamprojekt,,2025.1.0,84.86781413238099,2026-06-16 21h29.42.696670 +0200,
1,1,0,,,Barrier,0.16,f,0.3813563999719918,None,,,,,,,,,,,,,0,0,0,0,0,1,1,11,36.38010729994858,,38.91510379995452,38.92445809999481,39.72428179997951,39.71445319999475,,,,,,,,#A65628,LR,36.373194799991325,36.38010729994858,36.38010729994858,36.38010729994858,36.38010729994858,36.38010729994858,36.38010729994858,36.38010729994858,37.38054559996817,37.38054559996817,37.38054559996817,37.38054559996817,37.38054559996817,37.38054559996817,37.38054559996817,37.37017139996169,37.370220299984794,37.38054559996817,37.53651649999665,37.525649399962276,37.52950109995436,37.53651649999665,37.53651649999665,37.53651649999665,37.53651649999665,37.53651649999665,37.53651649999665,37.53651649999665,38.525386499997694,38.53550479997648,38.53550479997648,38.53550479997648,38.53550479997648,38.53550479997648,38.53550479997648,38.91501319996314,f,0.3813563999719918,None,,,,,001,2026-06-16_21h29.38.090,Teamprojekt,,2025.1.0,84.86781413238099,2026-06-16 21h29.42.696670 +0200,
2,2,0,,,Portal,0.02,f,0.5578721000347286,None,,,,,,,,,,,,,0,0,0,0,0,2,2,2,39.72428179997951,,42.30440319998888,42.31334439996863,43.11299949995009,43.10249619995011,,,,,,,,#F781BF,RL,39.717480599996634,39.72428179997951,39.72428179997951,39.72428179997951,39.72428179997951,39.72428179997951,39.72428179997951,39.72428179997951,40.72532869997667,40.72532869997667,40.72532869997667,40.72532869997667,40.72532869997667,40.72532869997667,40.72532869997667,40.71347539999988,40.7135218999465,40.72532869997667,40.74741679994622,40.73557919997256,40.739255799970124,40.74741679994622,40.74741679994622,40.74741679994622,40.74741679994622,40.74741679994622,40.74741679994622,40.74741679994622,41.735375999996904,41.74747629999183,41.74747629999183,41.74747629999183,41.74747629999183,41.74747629999183,41.74747629999183,42.30430209997576,f,0.5578721000347286,None,,,,,001,2026-06-16_21h29.38.090,Teamprojekt,,2025.1.0,84.86781413238099,2026-06-16 21h29.42.696670 +0200,
3,3,0,,,Barrier,0.02,j,0.4653325999970548,None,,,,,,,,,,,,,0,0,0,0,0,3,3,8,43.11299949995009,,45.59221360000083,45.60184819996357,46.40173219999997,46.39092219999293,,,,,,,,#1B9E77,LR,43.10532219999004,43.11299949995009,43.11299949995009,43.11299949995009,43.11299949995009,43.11299949995009,43.11299949995009,43.11299949995009,44.11301679996541,44.11301679996541,44.11301679996541,44.11301679996541,44.11301679996541,44.11301679996541,44.11301679996541,44.10300659999484,44.103043299983256,44.11301679996541,44.13565519999247,44.125413200003095,44.12942329997895,44.13565519999247,44.13565519999247,44.13565519999247,44.13565519999247,44.13565519999247,44.13565519999247,44.13565519999247,45.12497379997512,45.13605839997763,45.13605839997763,45.13605839997763,45.13605839997763,45.13605839997763,45.13605839997763,45.59211599995615,j,0.4653325999970548,None,,,,,001,2026-06-16_21h29.38.090,Teamprojekt,,2025.1.0,84.86781413238099,2026-06-16 21h29.42.696670 +0200,
4,4,0,,,Portal,0.08,f,0.35726039996370673,None,,,,,,,,,,,,,0,0,0,0,0,4,4,4,46.40173219999997,,48.83648810000159,48.84705329994904,49.64682389999507,49.636112199979834,,,,,,,,#A65628,RL,46.39393629995175,46.40173219999997,46.40173219999997,46.40173219999997,46.40173219999997,46.40173219999997,46.40173219999997,46.40173219999997,47.402830599981826,47.402830599981826,47.402830599981826,47.402830599981826,47.402830599981826,47.402830599981826,47.402830599981826,47.39188599999761,47.39192279998679,47.402830599981826,47.479895500000566,47.46858179999981,47.47231369995279,47.479895500000566,47.479895500000566,47.479895500000566,47.479895500000566,47.479895500000566,47.479895500000566,47.479895500000566,48.46928389999084,48.47946269996464,48.47946269996464,48.47946269996464,48.47946269996464,48.47946269996464,48.47946269996464,48.83639669994591,f,0.35726039996370673,None,,,,,001,2026-06-16_21h29.38.090,Teamprojekt,,2025.1.0,84.86781413238099,2026-06-16 21h29.42.696670 +0200,
5,5,0,,,Barrier,0.01,j,0.3532288999995217,None,,,,,,,,,,,,,0,0,0,0,0,5,5,7,49.64682389999507,,52.00224249996245,52.01333960000193,,52.80261019995669,,,,,,,,#F781BF,LR,49.63967539998703,49.64682389999507,49.64682389999507,49.64682389999507,49.64682389999507,49.64682389999507,49.64682389999507,49.64682389999507,50.646031499956734,50.646031499956734,50.646031499956734,50.646031499956734,50.646031499956734,50.646031499956734,50.646031499956734,50.636191300000064,50.63624429999618,50.646031499956734,50.65809869999066,50.64625489996979,50.64995239995187,50.65809869999066,50.65809869999066,50.65809869999066,50.65809869999066,50.65809869999066,50.65809869999066,50.65809869999066,51.64705109997885,51.658016399946064,51.658016399946064,51.658016399946064,51.658016399946064,51.658016399946064,51.658016399946064,52.00208999996539,j,0.3532288999995217,None,,,,,001,2026-06-16_21h29.38.090,Teamprojekt,,2025.1.0,84.86781413238099,2026-06-16 21h29.42.696670 +0200,
6,6,0,,,Standard,0.08,j,0.29201829998055473,None,,,,,,,,,,,,,0,0,0,0,0,6,6,16,52.81349309999496,,55.180680399993435,55.19020569999702,55.99010429996997,55.97974789998261,,,,,,,,#FF7F00,RL,52.80594910000218,52.81349309999496,52.81349309999496,52.81349309999496,52.81349309999496,52.81349309999496,52.81349309999496,52.81349309999496,53.812676499946974,53.812676499946974,53.812676499946974,53.812676499946974,53.812676499946974,53.812676499946974,53.812676499946974,53.803526199946646,53.80359429999953,53.812676499946974,53.892969299980905,53.879878199950326,53.884641899960116,53.892969299980905,53.892969299980905,53.892969299980905,53.892969299980905,53.892969299980905,53.892969299980905,53.892969299980905,54.87968399998499,54.891326699987985,54.891326699987985,54.891326699987985,54.891326699987985,54.891326699987985,54.891326699987985,55.180586399976164,j,0.29201829998055473,None,,,,,001,2026-06-16_21h29.38.090,Teamprojekt,,2025.1.0,84.86781413238099,2026-06-16 21h29.42.696670 +0200,
7,7,0,,,Barrier,0.04,f,0.22913430002517998,None,,,,,,,,,,,,,0,0,0,0,0,7,7,9,55.99010429996997,,58.257117999950424,58.2682383999927,,59.0578529999475,,,,,,,,#377EB8,LR,55.983018399972934,55.99010429996997,55.99010429996997,55.99010429996997,55.99010429996997,55.99010429996997,55.99010429996997,55.99010429996997,56.99104629998328,56.99104629998328,56.99104629998328,56.99104629998328,56.99104629998328,56.99104629998328,56.99104629998328,56.97965429996839,56.97968839999521,56.99104629998328,57.03458799998043,57.023910899995826,57.02870049997,57.03458799998043,57.03458799998043,57.03458799998043,57.03458799998043,57.03458799998043,57.03458799998043,57.03458799998043,58.023440499964636,58.035449099959806,58.035449099959806,58.035449099959806,58.035449099959806,58.035449099959806,58.035449099959806,58.25705839996226,f,0.22913430002517998,None,,,,,001,2026-06-16_21h29.38.090,Teamprojekt,,2025.1.0,84.86781413238099,2026-06-16 21h29.42.696670 +0200,
8,8,0,,,Standard,0.04,j,0.2711449000053108,None,,,,,,,,,,,,,0,0,0,0,0,8,8,15,59.06875499995658,,61.379129499953706,61.39090619998751,,62.179840600001626,,,,,,,,#A65628,RL,59.0619219999644,59.06875499995658,59.06875499995658,59.06875499995658,59.06875499995658,59.06875499995658,59.06875499995658,59.06875499995658,60.068191799975466,60.068191799975466,60.068191799975466,60.068191799975466,60.068191799975466,60.068191799975466,60.068191799975466,60.0578260999755,60.05787719995715,60.068191799975466,60.112532300001476,60.10194169997703,60.10518889996456,60.112532300001476,60.112532300001476,60.112532300001476,60.112532300001476,60.112532300001476,60.112532300001476,60.112532300001476,61.10198459995445,61.11270119994879,61.11270119994879,61.11270119994879,61.11270119994879,61.11270119994879,61.11270119994879,61.379069299960975,j,0.2711449000053108,None,,,,,001,2026-06-16_21h29.38.090,Teamprojekt,,2025.1.0,84.86781413238099,2026-06-16 21h29.42.696670 +0200,
9,9,0,,,Portal,0.16,j,0.32661729998653755,None,,,,,,,,,,,,,0,0,0,0,0,9,9,5,62.18980910000391,,64.6683094999753,64.67879069998162,65.47897569998167,65.46783249999862,,,,,,,,#F781BF,LR,62.182958899997175,62.18980910000391,62.18980910000391,62.18980910000391,62.18980910000391,62.18980910000391,62.18980910000391,62.18980910000391,63.19073859998025,63.19073859998025,63.19073859998025,63.19073859998025,63.19073859998025,63.19073859998025,63.19073859998025,63.17915609996999,63.17919019999681,63.19073859998025,63.345801699964795,63.335558699967805,63.33963939995738,63.345801699964795,63.345801699964795,63.345801699964795,63.345801699964795,63.345801699964795,63.345801699964795,63.345801699964795,64.3344430999714,64.34623999998439,64.34623999998439,64.34623999998439,64.34623999998439,64.34623999998439,64.34623999998439,64.66822449996835,j,0.32661729998653755,None,,,,,001,2026-06-16_21h29.38.090,Teamprojekt,,2025.1.0,84.86781413238099,2026-06-16 21h29.42.696670 +0200,
10,10,0,,,Barrier,0,f,0.3118609999655746,None,,,,,,,,,,,,,0,0,0,0,0,10,10,6,65.47897569998167,,67.79158619994996,67.80070809996687,68.60058189998381,68.59027889999561,,,,,,,,#1B9E77,LR,65.47131509997416,65.47897569998167,65.47897569998167,65.47897569998167,65.47897569998167,65.47897569998167,65.47897569998167,65.47897569998167,66.48158639995381,66.48158639995381,66.48158639995381,66.48158639995381,66.48158639995381,66.48158639995381,66.48158639995381,66.46785179997096,66.46788779995404,66.48158639995381,66.48158639995381,66.4679983999813,66.47213069995632,66.48158639995381,66.48158639995381,66.48158639995381,66.48158639995381,66.48158639995381,66.48158639995381,66.48158639995381,67.46863719995599,67.47849069995573,67.47849069995573,67.47849069995573,67.47849069995573,67.47849069995573,67.47849069995573,67.79145429999335,f,0.3118609999655746,None,,,,,001,2026-06-16_21h29.38.090,Teamprojekt,,2025.1.0,84.86781413238099,2026-06-16 21h29.42.696670 +0200,
11,11,0,,,Standard,0.01,j,0.24618440004996955,None,,,,,,,,,,,,,0,0,0,0,0,11,11,13,68.60058189998381,,70.85681269998895,70.86812469997676,71.66714589996263,71.65617329999804,,,,,,,,#FF7F00,LR,68.59352889994625,68.60058189998381,68.60058189998381,68.60058189998381,68.60058189998381,68.60058189998381,68.60058189998381,68.60058189998381,69.60150019999128,69.60150019999128,69.60150019999128,69.60150019999128,69.60150019999128,69.60150019999128,69.60150019999128,69.59069309994811,69.5907453999971,69.60150019999128,69.6121086999774,69.60187119996408,69.60518449998926,69.6121086999774,69.6121086999774,69.6121086999774,69.6121086999774,69.6121086999774,69.6121086999774,69.6121086999774,70.60143309994601,70.61255879997043,70.61255879997043,70.61255879997043,70.61255879997043,70.61255879997043,70.61255879997043,70.8567488999688,j,0.24618440004996955,None,,,,,001,2026-06-16_21h29.38.090,Teamprojekt,,2025.1.0,84.86781413238099,2026-06-16 21h29.42.696670 +0200,
12,12,0,,,Portal,0.04,f,0.3802869999781251,None,,,,,,,,,,,,,0,0,0,0,0,12,12,3,71.66714589996263,,74.09069549996639,74.10034199996153,74.90131029998884,74.88945739995688,,,,,,,,#4DAF4A,RL,71.65923819999443,71.66714589996263,71.66714589996263,71.66714589996263,71.66714589996263,71.66714589996263,71.66714589996263,71.66714589996263,72.6679433999816,72.6679433999816,72.6679433999816,72.6679433999816,72.6679433999816,72.6679433999816,72.6679433999816,72.65688659995794,72.65693309996277,72.6679433999816,72.7119094999507,72.70151089999126,72.70583319995785,72.7119094999507,72.7119094999507,72.7119094999507,72.7119094999507,72.7119094999507,72.7119094999507,72.7119094999507,73.70125589997042,73.71143939998001,73.71143939998001,73.71143939998001,73.71143939998001,73.71143939998001,73.71143939998001,74.09060409996891,f,0.3802869999781251,None,,,,,001,2026-06-16_21h29.38.090,Teamprojekt,,2025.1.0,84.86781413238099,2026-06-16 21h29.42.696670 +0200,
13,13,0,,,Standard,0.02,j,0.3397056999965571,None,,,,,,,,,,,,,0,0,0,0,0,13,13,14,74.90131029998884,,77.25607719999971,77.26777749997564,,78.0568863999797,,,,,,,,#E41A1C,LR,74.89336839999305,74.90131029998884,74.90131029998884,74.90131029998884,74.90131029998884,74.90131029998884,74.90131029998884,74.90131029998884,75.90118119999534,75.90118119999534,75.90118119999534,75.90118119999534,75.90118119999534,75.90118119999534,75.90118119999534,75.890387499996,75.89043339999625,75.90118119999534,75.92284729995299,75.91248339996673,75.91556949994992,75.92284729995299,75.92284729995299,75.92284729995299,75.92284729995299,75.92284729995299,75.92284729995299,75.92284729995299,76.9113155999803,76.92352899996331,76.92352899996331,76.92352899996331,76.92352899996331,76.92352899996331,76.92352899996331,77.25601630000165,j,0.3397056999965571,None,,,,,001,2026-06-16_21h29.38.090,Teamprojekt,,2025.1.0,84.86781413238099,2026-06-16 21h29.42.696670 +0200,
14,14,0,,,Portal,0.01,f,0.3607289000065066,None,,,,,,,,,,,,,0,0,0,0,0,14,14,1,78.06691899994621,,80.4350557999569,80.44527979998384,81.24436769995373,81.23409639997408,,,,,,,,#377EB8,RL,78.05985919997329,78.06691899994621,78.06691899994621,78.06691899994621,78.06691899994621,78.06691899994621,78.06691899994621,78.06691899994621,79.06683039997006,79.06683039997006,79.06683039997006,79.06683039997006,79.06683039997006,79.06683039997006,79.06683039997006,79.05727989994921,79.05733899999177,79.06683039997006,79.07794219994685,79.06714969995664,79.07071409997297,79.07794219994685,79.07794219994685,79.07794219994685,79.07794219994685,79.07794219994685,79.07794219994685,79.07794219994685,80.06665900000371,80.07885979994899,80.07885979994899,80.07885979994899,80.07885979994899,80.07885979994899,80.07885979994899,80.43493209994631,f,0.3607289000065066,None,,,,,001,2026-06-16_21h29.38.090,Teamprojekt,,2025.1.0,84.86781413238099,2026-06-16 21h29.42.696670 +0200,
15,15,0,,,Barrier,0.08,j,0.36682940000901,None,,,,,,,,,,,,,0,0,0,0,0,15,15,10,81.24436769995373,,83.67989199998556,83.68889910000144,84.48934709996684,84.4787600999698,,,,,,,,#984EA3,RL,81.23699099995429,81.24436769995373,81.24436769995373,81.24436769995373,81.24436769995373,81.24436769995373,81.24436769995373,81.24436769995373,82.24474949995056,82.24474949995056,82.24474949995056,82.24474949995056,82.24474949995056,82.24474949995056,82.24474949995056,82.23450689995661,82.23455589998048,82.24474949995056,82.32431860000361,82.31210419995477,82.3163518999936,82.32431860000361,82.32431860000361,82.32431860000361,82.32431860000361,82.32431860000361,82.32431860000361,82.32431860000361,83.31095559999812,83.32300429994939,83.32300429994939,83.32300429994939,83.32300429994939,83.32300429994939,83.32300429994939,83.67977180000162,j,0.36682940000901,None,,,,,001,2026-06-16_21h29.38.090,Teamprojekt,,2025.1.0,84.86781413238099,2026-06-16 21h29.42.696670 +0200,
16,16,0,,,Standard,0,f,0.9113114000065252,None,,,,,,,,,,,,,0,0,0,0,0,16,16,12,84.48934709996684,,87.40110749995802,87.41077099996619,88.21111779997591,88.19972759997472,,,,,,,,#4DAF4A,LR,84.48183159995824,84.48934709996684,84.48934709996684,84.48934709996684,84.48934709996684,84.48934709996684,84.48934709996684,84.48934709996684,85.49105729995063,85.49105729995063,85.49105729995063,85.49105729995063,85.49105729995063,85.49105729995063,85.49105729995063,85.47870609996608,85.47875509998994,85.49105729995063,85.49105729995063,85.47887469996931,85.48326700000325,85.49105729995063,85.49105729995063,85.49105729995063,85.49105729995063,85.49105729995063,85.49105729995063,85.49105729995063,86.47837179998169,86.4895282999496,86.4895282999496,86.4895282999496,86.4895282999496,86.4895282999496,86.4895282999496,87.401013900002,f,0.9113114000065252,None,,,,,001,2026-06-16_21h29.38.090,Teamprojekt,,2025.1.0,84.86781413238099,2026-06-16 21h29.42.696670 +0200,
17,17,0,,,Standard,0.16,j,0.34984939999412745,None,,,,,,,,,,,,,0,0,0,0,0,17,17,17,88.21111779997591,,90.71201439999277,90.72175339999376,91.53259309998248,91.51182289997814,,,,,,,,#E41A1C,RL,88.20285989996046,88.21111779997591,88.21111779997591,88.21111779997591,88.21111779997591,88.21111779997591,88.21111779997591,88.21111779997591,89.2115728999488,89.2115728999488,89.2115728999488,89.2115728999488,89.2115728999488,89.2115728999488,89.2115728999488,89.20073559996672,89.20078279997688,89.2115728999488,89.36865169997327,89.35657369997352,89.36034879996441,89.36865169997327,89.36865169997327,89.36865169997327,89.36865169997327,89.36865169997327,89.36865169997327,89.36865169997327,90.35624339996139,90.36669469997287,90.36669469997287,90.36669469997287,90.36669469997287,90.36669469997287,90.36669469997287,90.71192649996374,j,0.34984939999412745,None,,,,,001,2026-06-16_21h29.38.090,Teamprojekt,,2025.1.0,84.86781413238099,2026-06-16 21h29.42.696670 +0200,
,,,,,,,,,,,,,,,,,,,,,,,,,,,,,,,,,,,,,,,,,,,,,,,,,,,,,,,,,,,,,,,,,,,,,,,,,,,,,,,,,,,,91.52725779998582,91.53259309998248,91.53259309998248,,,,,,,,,
