thisN,thisTrialN,thisRepN,conditions_practice,ISI_practice,keyPractice.keys,keyPractice.rt,keyPractice.duration,elementMotionDemo.thisRepN,elementMotionDemo.thisTrialN,elementMotionDemo.thisN,elementMotionDemo.thisIndex,groupMotionDemo.thisRepN,groupMotionDemo.thisTrialN,groupMotionDemo.thisN,groupMotionDemo.thisIndex,practiceLoop.thisRepN,practiceLoop.thisTrialN,practiceLoop.thisN,practiceLoop.thisIndex,thisRow.t,notes,InstructionScreen.started,textInstructions.started,keyInstructionContinue.started,keyInstructionContinue.keys,keyInstructionContinue.rt,keyInstructionContinue.duration,InstructionScreen.stopped,direction,exampleFrame1.started,ternusExampleLeft.started,ternusExampleMiddle.started,ternusExampleRight.started,FixationCrossExample.started,ternusExampleLeft.stopped,ternusExampleMiddle.stopped,ternusExampleRight.stopped,FixationCrossExample.stopped,exampleFrame1.stopped,exampleFrame2.started,ternusExampleLeft_2.started,ternusExampleMiddle_2.started,ternusExampleRight_2.started,FixationCrossExample_2.started,ternusExampleLeft_2.stopped,ternusExampleMiddle_2.stopped,ternusExampleRight_2.stopped,FixationCrossExample_2.stopped,exampleFrame2.stopped,blank800.started,FixationCrossBlank800.started,FixationCrossBlank800.stopped,blank800.stopped,elementMotionExplained.started,textElementMotion.started,keyElementMotionExplained.started,elementMotionExplained.stopped,keyElementMotionExplained.keys,keyElementMotionExplained.rt,keyElementMotionExplained.duration,blank160.started,FixationCrossBlank160.started,FixationCrossBlank160.stopped,blank160.stopped,groupMotionExplained.started,textGroupMotion.started,keyGroupMotionExplained.started,groupMotionExplained.stopped,keyGroupMotionExplained.keys,keyGroupMotionExplained.rt,keyGroupMotionExplained.duration,causalColor,practiceFrame1.started,ternusObjLeftPrac.started,ternusObjMiddlePrac.started,ternusObjRightPrac.started,FixationCrossPrac.started,portalLeftPrac.started,portalRightPrac.started,BarrierPrac.started,ternusObjLeftPrac.stopped,ternusObjMiddlePrac.stopped,ternusObjRightPrac.stopped,FixationCrossPrac.stopped,portalLeftPrac.stopped,portalRightPrac.stopped,BarrierPrac.stopped,practiceFrame1.stopped,blankISI_Practice.started,FixationCrossBlankPractice.started,FixationCrossBlankPractice.stopped,blankISI_Practice.stopped,practiceFrame2.started,keyPractice.started,ternusObjLeftPrac_2.started,ternusObjMiddlePrac_2.started,ternusObjRightPrac_2.started,FixationCrossPrac_2.started,portalLeftPrac_2.started,portalRightPrac_2.started,BarrierPrac_2.started,ternusObjLeftPrac_2.stopped,ternusObjMiddlePrac_2.stopped,ternusObjRightPrac_2.stopped,portalLeftPrac_2.stopped,portalRightPrac_2.stopped,BarrierPrac_2.stopped,practiceFrame2.stopped,practiceLoop.keyPractice.keys,practiceLoop.keyPractice.rt,practiceLoop.keyPractice.duration,StartScreen.started,textStartMessage.started,keyStart.started,participant,session,date,expName,expVersion,psychopyVersion,frameRate,expStart,
,,,,,,,,,,,,,,,,,,,,,,0.002963299979455769,0.007493600016459823,0.9980483999825083,space,2.171354499994777,None,3.17018159996951,,,,,,,,,,,,,,,,,,,,,,,,,,,,,,,,,,,,,,,,,,,,,,,,,,,,,,,,,,,,,,,,,,,,,,,,,,,,,,,,,,,,,,,,001,2026-06-16_20h14.45.795,Teamprojekt,,2025.1.0,85.77307705739074,2026-06-16 20h14.50.429778 +0200,
0,0,0,,,,,,0,0,0,0,,,,,,,,,3.179849900014233,,,,,,,,,LR,3.170892799971625,3.179849900014233,3.179849900014233,3.179849900014233,3.179849900014233,3.380436900013592,3.380436900013592,3.380436900013592,3.380436900013592,3.3690576999797486,3.369472099991981,3.380436900013592,3.380436900013592,3.380436900013592,3.380436900013592,3.579892400011886,3.579892400011886,3.579892400011886,3.579892400011886,3.56904490001034,3.5690876999869943,3.579892400011886,4.379997699987143,4.3689614000031725,,,,,,,,,,,,,,,,,,,,,,,,,,,,,,,,,,,,,,,,,,,,,,,,,,,,,,,,,,,,,,,001,2026-06-16_20h14.45.795,Teamprojekt,,2025.1.0,85.77307705739074,2026-06-16 20h14.50.429778 +0200,
1,0,1,,,,,,1,0,1,0,,,,,,,,,4.379997699987143,,,,,,,,,RL,4.369711100007407,4.379997699987143,4.379997699987143,4.379997699987143,4.379997699987143,4.579877200012561,4.579877200012561,4.579877200012561,4.579877200012561,4.568928599997889,4.56932319997577,4.579877200012561,4.579877200012561,4.579877200012561,4.579877200012561,4.779994899989106,4.779994899989106,4.779994899989106,4.779994899989106,4.768794299976435,4.768828600004781,4.779994899989106,,5.569519300013781,,,,,,,,,,,,,,,,,,,,,,,,,,,,,,,,,,,,,,,,,,,,,,,,,,,,,,,,,,,,,,,001,2026-06-16_20h14.45.795,Teamprojekt,,2025.1.0,85.77307705739074,2026-06-16 20h14.50.429778 +0200,
2,0,2,,,,,,2,0,2,0,,,,,,,,,5.57970750000095,,,,,,,,,LR,5.570179599977564,5.57970750000095,5.57970750000095,5.57970750000095,5.57970750000095,5.779498199990485,5.779498199990485,5.779498199990485,5.779498199990485,5.7688039999920875,5.769225700001698,5.779498199990485,5.779498199990485,5.779498199990485,5.779498199990485,5.980028500023764,5.980028500023764,5.980028500023764,5.980028500023764,5.96869730000617,5.9687433000071906,5.980028500023764,,6.769334900018293,,,,,,,,,,,,,,,,,,,,,,,,,,,,,,,,,,,,,,,,,,,,,,,,,,,,,,,,,,,,,,,001,2026-06-16_20h14.45.795,Teamprojekt,,2025.1.0,85.77307705739074,2026-06-16 20h14.50.429778 +0200,
3,0,3,,,,,,3,0,3,0,,,,,,,,,6.779548800026532,,,,,,,,,RL,6.769925599975977,6.779548800026532,6.779548800026532,6.779548800026532,6.779548800026532,6.98028289998183,6.98028289998183,6.98028289998183,6.98028289998183,6.9693364999839105,6.969674899999518,6.98028289998183,6.98028289998183,6.98028289998183,6.98028289998183,7.180999499978498,7.180999499978498,7.180999499978498,7.180999499978498,7.170234600023832,7.170285000000149,7.180999499978498,7.980090199969709,7.969386500015389,,,,,,,,,,,,,,,,,,,,,,,,,,,,,,,,,,,,,,,,,,,,,,,,,,,,,,,,,,,,,,,001,2026-06-16_20h14.45.795,Teamprojekt,,2025.1.0,85.77307705739074,2026-06-16 20h14.50.429778 +0200,
,,,,,,,,,,,,,,,,,,,,,,,,,,,,,,,,,,,,,,,,,,,,,,,,,,,,,,7.969486000016332,7.980090199969709,8.468404899991583,9.314086899976246,space,0.8386608000146225,None,,,,,,,,,,,,,,,,,,,,,,,,,,,,,,,,,,,,,,,,,,,,,,,,,,,,,,,,001,2026-06-16_20h14.45.795,Teamprojekt,,2025.1.0,85.77307705739074,2026-06-16 20h14.50.429778 +0200,
0,0,0,,,,,,,,,,0,0,0,0,,,,,9.324314199970104,,,,,,,,,LR,9.315039700013585,9.324314199970104,9.324314199970104,9.324314199970104,9.324314199970104,9.524419000023045,9.524419000023045,9.524419000023045,9.524419000023045,9.514383099973202,9.669577400025446,9.67984160000924,9.67984160000924,9.67984160000924,9.67984160000924,9.879811600025278,9.879811600025278,9.879811600025278,9.879811600025278,9.869071000022814,9.869104599987622,9.879811600025278,10.679342999996152,10.668400999973528,,,,,,,,9.514430899987929,9.524419000023045,9.67984160000924,9.669237099995371,,,,,,,,,,,,,,,,,,,,,,,,,,,,,,,,,,,,,,,,,,,,,,,,,,,,001,2026-06-16_20h14.45.795,Teamprojekt,,2025.1.0,85.77307705739074,2026-06-16 20h14.50.429778 +0200,
1,0,1,,,,,,,,,,1,0,1,0,,,,,10.679342999996152,,,,,,,,,LR,10.668882000027224,10.679342999996152,10.679342999996152,10.679342999996152,10.679342999996152,10.880746299983002,10.880746299983002,10.880746299983002,10.880746299983002,10.869920199969783,11.02495180000551,11.035422299988568,11.035422299988568,11.035422299988568,11.035422299988568,11.235706300009042,11.235706300009042,11.235706300009042,11.235706300009042,11.22407449997263,11.22410829999717,11.235706300009042,12.035732600023039,12.023966500011738,,,,,,,,10.869976399990264,10.880746299983002,11.035422299988568,11.024611499975435,,,,,,,,,,,,,,,,,,,,,,,,,,,,,,,,,,,,,,,,,,,,,,,,,,,,001,2026-06-16_20h14.45.795,Teamprojekt,,2025.1.0,85.77307705739074,2026-06-16 20h14.50.429778 +0200,
2,0,2,,,,,,,,,,2,0,2,0,,,,,12.035732600023039,,,,,,,,,LR,12.024629099993035,12.035732600023039,12.035732600023039,12.035732600023039,12.035732600023039,12.234836100018583,12.234836100018583,12.234836100018583,12.234836100018583,12.224150400026701,12.379801800008863,12.391473399999086,12.391473399999086,12.391473399999086,12.391473399999086,12.590372300008312,12.590372300008312,12.590372300008312,12.590372300008312,12.580092800024431,12.580128800007515,12.590372300008312,13.39132029999746,13.37960899999598,,,,,,,,12.224198399984743,12.234836100018583,12.391473399999086,12.379438799980562,,,,,,,,,,,,,,,,,,,,,,,,,,,,,,,,,,,,,,,,,,,,,,,,,,,,001,2026-06-16_20h14.45.795,Teamprojekt,,2025.1.0,85.77307705739074,2026-06-16 20h14.50.429778 +0200,
3,0,3,,,,,,,,,,3,0,3,0,,,,,13.39132029999746,,,,,,,,,LR,13.380240099970251,13.39132029999746,13.39132029999746,13.39132029999746,13.39132029999746,13.590414399979636,13.590414399979636,13.590414399979636,13.590414399979636,13.579512899974361,13.735606700007338,13.746938100026455,13.746938100026455,13.746938100026455,13.746938100026455,13.945865900022909,13.945865900022909,13.945865900022909,13.945865900022909,13.936361100000795,13.936395599972457,13.945865900022909,14.745897300017532,14.736499299993739,,,,,,,,13.579546799999662,13.590414399979636,13.746938100026455,13.735152599983849,,,,,,,,,,,,,,,,,,,,,,,,,,,,,,,,,,,,,,,,,,,,,,,,,,,,001,2026-06-16_20h14.45.795,Teamprojekt,,2025.1.0,85.77307705739074,2026-06-16 20h14.50.429778 +0200,
,,,,,,,,,,,,,,,,,,,,,,,,,,,,,,,,,,,,,,,,,,,,,,,,,,,,,,,,,,,,,,,,,14.736650499980897,14.745897300017532,15.235642699990422,19.680643300001975,space,4.435061800002586,None,,,,,,,,,,,,,,,,,,,,,,,,,,,,,,,,,,,,,,,,,,,,,001,2026-06-16_20h14.45.795,Teamprojekt,,2025.1.0,85.77307705739074,2026-06-16 20h14.50.429778 +0200,
0,0,0,Barrier,0,f,2.7994365000049584,None,,,,,,,,,0,0,0,4,19.695286599977408,,,,,,,,,,,,,,,,,,,,,,,,,,,,,,22.69059740001103,22.700996599975042,,23.4909037000034,,,,,,,,,,,,,,,,,,,orange,19.688603000016883,19.695286599977408,19.695286599977408,19.695286599977408,19.695286599977408,19.695286599977408,19.695286599977408,19.695286599977408,19.890051700000186,19.890051700000186,19.890051700000186,19.890051700000186,19.890051700000186,19.890051700000186,19.890051700000186,19.880901299999095,19.88095500000054,19.890051700000186,19.890051700000186,19.881114899995737,19.882568900007755,19.890051700000186,19.890051700000186,19.890051700000186,19.890051700000186,19.890051700000186,19.890051700000186,19.890051700000186,19.890051700000186,20.090075200016145,20.090075200016145,20.090075200016145,20.090075200016145,20.090075200016145,20.090075200016145,22.690495599992573,f,2.7994365000049584,None,,,,,001,2026-06-16_20h14.45.795,Teamprojekt,,2025.1.0,85.77307705739074,2026-06-16 20h14.50.429778 +0200,
1,1,0,Standard,0.02,j,1.4192924999515526,None,,,,,,,,,0,1,1,9,23.500793799990788,,,,,,,,,,,,,,,,,,,,,,,,,,,,,,25.145954000006896,25.15757979999762,,25.94633090001298,,,,,,,,,,,,,,,,,,,blue,23.4929954999825,23.500793799990788,23.500793799990788,23.500793799990788,23.500793799990788,23.500793799990788,23.500793799990788,23.500793799990788,23.701785899989773,23.701785899989773,23.701785899989773,23.701785899989773,23.701785899989773,23.701785899989773,23.701785899989773,23.690702399995644,23.690750700014178,23.701785899989773,23.723002400016412,23.713083699985873,23.71481789997779,23.723002400016412,23.723002400016412,23.723002400016412,23.723002400016412,23.723002400016412,23.723002400016412,23.723002400016412,23.723002400016412,23.923234299989417,23.923234299989417,23.923234299989417,23.923234299989417,23.923234299989417,23.923234299989417,25.145889799983706,j,1.4192924999515526,None,,,,,001,2026-06-16_20h14.45.795,Teamprojekt,,2025.1.0,85.77307705739074,2026-06-16 20h14.50.429778 +0200,
2,2,0,Standard,0.16,j,1.4901349999709055,None,,,,,,,,,0,2,2,11,25.95626110001467,,,,,,,,,,,,,,,,,,,,,,,,,,,,,,27.812167200027034,27.823821600002702,,28.613342900003772,,,,,,,,,,,,,,,,,,,cyan,25.948463900014758,25.95626110001467,25.95626110001467,25.95626110001467,25.95626110001467,25.95626110001467,25.95626110001467,25.95626110001467,26.157940400007647,26.157940400007647,26.157940400007647,26.157940400007647,26.157940400007647,26.157940400007647,26.157940400007647,26.1463990000193,26.146448499988765,26.157940400007647,26.312029899971094,26.302512599970214,26.304876899986994,26.312029899971094,26.312029899971094,26.312029899971094,26.312029899971094,26.312029899971094,26.312029899971094,26.312029899971094,26.312029899971094,26.51275509997504,26.51275509997504,26.51275509997504,26.51275509997504,26.51275509997504,26.51275509997504,27.8121012999909,j,1.4901349999709055,None,,,,,001,2026-06-16_20h14.45.795,Teamprojekt,,2025.1.0,85.77307705739074,2026-06-16 20h14.50.429778 +0200,
3,3,0,Standard,0,j,1.233742300013546,None,,,,,,,,,0,3,3,8,28.62290880002547,,,,,,,,,,,,,,,,,,,,,,,,,,,,,,30.06865440000547,30.078284199989866,30.878430999990087,30.867608700005803,,,,,,,,,,,,,,,,,,,purple,28.615060899988748,28.62290880002547,28.62290880002547,28.62290880002547,28.62290880002547,28.62290880002547,28.62290880002547,28.62290880002547,28.8227215000079,28.8227215000079,28.8227215000079,28.8227215000079,28.8227215000079,28.8227215000079,28.8227215000079,28.81291009997949,28.812961100018583,28.8227215000079,28.8227215000079,28.813071399985347,28.815157999983057,28.8227215000079,28.8227215000079,28.8227215000079,28.8227215000079,28.8227215000079,28.8227215000079,28.8227215000079,28.8227215000079,29.02357750001829,29.02357750001829,29.02357750001829,29.02357750001829,29.02357750001829,29.02357750001829,30.06855429999996,j,1.233742300013546,None,,,,,001,2026-06-16_20h14.45.795,Teamprojekt,,2025.1.0,85.77307705739074,2026-06-16 20h14.50.429778 +0200,
4,4,0,Standard,0.08,j,2.0829765999806114,None,,,,,,,,,0,4,4,10,30.878430999990087,,,,,,,,,,,,,,,,,,,,,,,,,,,,,,33.24555910000345,33.25608919997467,34.05580159998499,34.045561100007035,,,,,,,,,,,,,,,,,,,purple,30.869086000020616,30.878430999990087,30.878430999990087,30.878430999990087,30.878430999990087,30.878430999990087,30.878430999990087,30.878430999990087,31.079165400005877,31.079165400005877,31.079165400005877,31.079165400005877,31.079165400005877,31.079165400005877,31.079165400005877,31.06780419999268,31.067851300002076,31.079165400005877,31.155941399978474,31.145605999976397,31.147242299979553,31.155941399978474,31.155941399978474,31.155941399978474,31.155941399978474,31.155941399978474,31.155941399978474,31.155941399978474,31.155941399978474,31.356932000024244,31.356932000024244,31.356932000024244,31.356932000024244,31.356932000024244,31.356932000024244,33.24545639997814,j,2.0829765999806114,None,,,,,001,2026-06-16_20h14.45.795,Teamprojekt,,2025.1.0,85.77307705739074,2026-06-16 20h14.50.429778 +0200,
5,5,0,Barrier,0.16,j,1.7453574999817647,None,,,,,,,,,0,5,5,7,34.05580159998499,,,,,,,,,,,,,,,,,,,,,,,,,,,,,,36.167829099984374,36.178834999969695,36.97787130001234,36.96790509996936,,,,,,,,,,,,,,,,,,,green,34.04712509998353,34.05580159998499,34.05580159998499,34.05580159998499,34.05580159998499,34.05580159998499,34.05580159998499,34.05580159998499,34.256923499982804,34.256923499982804,34.256923499982804,34.256923499982804,34.256923499982804,34.256923499982804,34.256923499982804,34.24521050002659,34.245245400001295,34.256923499982804,34.411389100016095,34.40044860000489,34.40210950002074,34.411389100016095,34.411389100016095,34.411389100016095,34.411389100016095,34.411389100016095,34.411389100016095,34.411389100016095,34.411389100016095,34.61233809997793,34.61233809997793,34.61233809997793,34.61233809997793,34.61233809997793,34.61233809997793,36.167760999989696,j,1.7453574999817647,None,,,,,001,2026-06-16_20h14.45.795,Teamprojekt,,2025.1.0,85.77307705739074,2026-06-16 20h14.50.429778 +0200,
6,6,0,Portal,0.16,j,1.4834436999517493,None,,,,,,,,,0,6,6,3,36.97787130001234,,,,,,,,,,,,,,,,,,,,,,,,,,,,,,38.8233144999831,38.833500700013246,,39.623454199987464,,,,,,,,,,,,,,,,,,,purple,36.969432800018694,36.97787130001234,36.97787130001234,36.97787130001234,36.97787130001234,36.97787130001234,36.97787130001234,36.97787130001234,37.17878279997967,37.17878279997967,37.17878279997967,37.17878279997967,37.17878279997967,37.17878279997967,37.17878279997967,37.16744639998069,37.16749640001217,37.17878279997967,37.333584400010295,37.322546100011095,37.32394719996955,37.333584400010295,37.333584400010295,37.333584400010295,37.333584400010295,37.333584400010295,37.333584400010295,37.333584400010295,37.333584400010295,37.53452569997171,37.53452569997171,37.53452569997171,37.53452569997171,37.53452569997171,37.53452569997171,38.823190599970985,j,1.4834436999517493,None,,,,,001,2026-06-16_20h14.45.795,Teamprojekt,,2025.1.0,85.77307705739074,2026-06-16 20h14.50.429778 +0200,
7,7,0,Portal,0.02,j,2.095192099979613,None,,,,,,,,,0,7,7,1,39.63339779997477,,,,,,,,,,,,,,,,,,,,,,,,,,,,,,41.95689560001483,41.967498300014995,42.766443700005766,42.75656459998572,,,,,,,,,,,,,,,,,,,magenta,39.62559930002317,39.63339779997477,39.63339779997477,39.63339779997477,39.63339779997477,39.63339779997477,39.63339779997477,39.63339779997477,39.834348400007,39.834348400007,39.834348400007,39.834348400007,39.834348400007,39.834348400007,39.834348400007,39.82261939998716,39.822670400026254,39.834348400007,39.8554570999695,39.84564580000006,39.847440999990795,39.8554570999695,39.8554570999695,39.8554570999695,39.8554570999695,39.8554570999695,39.8554570999695,39.8554570999695,39.8554570999695,40.056935900007375,40.056935900007375,40.056935900007375,40.056935900007375,40.056935900007375,40.056935900007375,41.95679600001313,j,2.095192099979613,None,,,,,001,2026-06-16_20h14.45.795,Teamprojekt,,2025.1.0,85.77307705739074,2026-06-16 20h14.50.429778 +0200,
8,8,0,Portal,0.08,j,0.9036791000398807,None,,,,,,,,,0,8,8,2,42.766443700005766,,,,,,,,,,,,,,,,,,,,,,,,,,,,,,43.956094899971504,43.967060299997684,44.766388199990615,44.75552359997528,,,,,,,,,,,,,,,,,,,blue,42.7581909999717,42.766443700005766,42.766443700005766,42.766443700005766,42.766443700005766,42.766443700005766,42.766443700005766,42.766443700005766,42.96746219997294,42.96746219997294,42.96746219997294,42.96746219997294,42.96746219997294,42.96746219997294,42.96746219997294,42.95670979999704,42.95674659998622,42.96746219997294,43.04440850001993,43.03434820001712,43.036403900012374,43.04440850001993,43.04440850001993,43.04440850001993,43.04440850001993,43.04440850001993,43.04440850001993,43.04440850001993,43.04440850001993,43.24420319998171,43.24420319998171,43.24420319998171,43.24420319998171,43.24420319998171,43.24420319998171,43.956028099986725,j,0.9036791000398807,None,,,,,001,2026-06-16_20h14.45.795,Teamprojekt,,2025.1.0,85.77307705739074,2026-06-16 20h14.50.429778 +0200,
9,9,0,Barrier,0.02,j,1.171389499970246,None,,,,,,,,,0,9,9,5,44.766388199990615,,,,,,,,,,,,,,,,,,,,,,,,,,,,,,46.16775299998699,46.1774520999752,46.97747540002456,46.96682909998344,,,,,,,,,,,,,,,,,,,purple,44.757156000006944,44.766388199990615,44.766388199990615,44.766388199990615,44.766388199990615,44.766388199990615,44.766388199990615,44.766388199990615,44.967080699978396,44.967080699978396,44.967080699978396,44.967080699978396,44.967080699978396,44.967080699978396,44.967080699978396,44.95630000001984,44.95633880002424,44.967080699978396,44.988595200004056,44.97856680001132,44.98071119998349,44.988595200004056,44.988595200004056,44.988595200004056,44.988595200004056,44.988595200004056,44.988595200004056,44.988595200004056,44.988595200004056,45.18865750002442,45.18865750002442,45.18865750002442,45.18865750002442,45.18865750002442,45.18865750002442,46.16766109998571,j,1.171389499970246,None,,,,,001,2026-06-16_20h14.45.795,Teamprojekt,,2025.1.0,85.77307705739074,2026-06-16 20h14.50.429778 +0200,
10,10,0,Barrier,0.08,f,1.2809583999915048,None,,,,,,,,,0,10,10,6,46.97747540002456,,,,,,,,,,,,,,,,,,,,,,,,,,,,,,48.54568919999292,48.55557590001263,49.35494489996927,49.345148299995344,,,,,,,,,,,,,,,,,,,magenta,46.96833509998396,46.97747540002456,46.97747540002456,46.97747540002456,46.97747540002456,46.97747540002456,46.97747540002456,46.97747540002456,47.1783592000138,47.1783592000138,47.1783592000138,47.1783592000138,47.1783592000138,47.1783592000138,47.1783592000138,47.16711590002524,47.167150799999945,47.1783592000138,47.255073499982245,47.245247400016524,47.24697560002096,47.255073499982245,47.255073499982245,47.255073499982245,47.255073499982245,47.255073499982245,47.255073499982245,47.255073499982245,47.255073499982245,47.456057199975476,47.456057199975476,47.456057199975476,47.456057199975476,47.456057199975476,47.456057199975476,48.54552980000153,f,1.2809583999915048,None,,,,,001,2026-06-16_20h14.45.795,Teamprojekt,,2025.1.0,85.77307705739074,2026-06-16 20h14.50.429778 +0200,
11,11,0,Portal,0,f,1.6276874000323005,None,,,,,,,,,0,11,11,0,49.35494489996927,,,,,,,,,,,,,,,,,,,,,,,,,,,,,,51.18948529998306,51.1995141999796,52.000288099981844,51.98933999997098,,,,,,,,,,,,,,,,,,,red,49.3468617000035,49.35494489996927,49.35494489996927,49.35494489996927,49.35494489996927,49.35494489996927,49.35494489996927,49.35494489996927,49.55503659998067,49.55503659998067,49.55503659998067,49.55503659998067,49.55503659998067,49.55503659998067,49.55503659998067,49.54480139998486,49.54485619999468,49.55503659998067,49.55503659998067,49.54500779998489,49.546425300010014,49.55503659998067,49.55503659998067,49.55503659998067,49.55503659998067,49.55503659998067,49.55503659998067,49.55503659998067,49.55503659998067,49.75598399998853,49.75598399998853,49.75598399998853,49.75598399998853,49.75598399998853,49.75598399998853,51.18941749999067,f,1.6276874000323005,None,,,,,001,2026-06-16_20h14.45.795,Teamprojekt,,2025.1.0,85.77307705739074,2026-06-16 20h14.50.429778 +0200,
,,,,,,,,,,,,,,,,,,,,,,,,,,,,,,,,,,,,,,,,,,,,,,,,,,,,,,,,,,,,,,,,,,,,,,,,,,,,,,,,,,,,,,,,,,,,,,,,,,,,,,,,,,,,,,,,51.98949349997565,52.000288099981844,52.489151199988555,,,,,,,,,
