thisN,thisTrialN,thisRepN,conditions_practice,ISI_practice,keyPractice.keys,keyPractice.rt,keyPractice.duration,elementMotionDemo.thisRepN,elementMotionDemo.thisTrialN,elementMotionDemo.thisN,elementMotionDemo.thisIndex,groupMotionDemo.thisRepN,groupMotionDemo.thisTrialN,groupMotionDemo.thisN,groupMotionDemo.thisIndex,practiceLoop.thisRepN,practiceLoop.thisTrialN,practiceLoop.thisN,practiceLoop.thisIndex,thisRow.t,notes,blank800.started,FixationCrossBlank800.started,blank800.stopped,FixationCrossBlank800.stopped,groupMotionExplained.started,textGroupMotion.started,keyGroupMotionExplained.started,groupMotionExplained.stopped,keyGroupMotionExplained.keys,keyGroupMotionExplained.rt,keyGroupMotionExplained.duration,causalColor,direction,practiceFrame1.started,ternusObjLeftPrac.started,ternusObjMiddlePrac.started,ternusObjRightPrac.started,FixationCrossPrac.started,portalLeftPrac.started,portalRightPrac.started,BarrierPrac.started,ternusObjLeftPrac.stopped,ternusObjMiddlePrac.stopped,ternusObjRightPrac.stopped,FixationCrossPrac.stopped,portalLeftPrac.stopped,portalRightPrac.stopped,BarrierPrac.stopped,practiceFrame1.stopped,blankISI_Practice.started,FixationCrossBlankPractice.started,FixationCrossBlankPractice.stopped,blankISI_Practice.stopped,practiceFrame2.started,ternusObjLeftPrac_2.started,ternusObjMiddlePrac_2.started,ternusObjRightPrac_2.started,FixationCrossPrac_2.started,portalLeftPrac_2.started,portalRightPrac_2.started,BarrierPrac_2.started,keyPractice.started,ternusObjLeftPrac_2.stopped,ternusObjMiddlePrac_2.stopped,ternusObjRightPrac_2.stopped,portalLeftPrac_2.stopped,portalRightPrac_2.stopped,BarrierPrac_2.stopped,practiceFrame2.stopped,practiceLoop.keyPractice.keys,practiceLoop.keyPractice.rt,practiceLoop.keyPractice.duration,StartScreen.started,textStartMessage.started,keyStart.started,participant,session,date,expName,expVersion,psychopyVersion,frameRate,expStart,
0,0,0,,,,,,0,0,0,0,,,,,,,,,0.021092500013764948,,0.003277099982369691,0.021092500013764948,0.8015935000148602,,,,,,,,,,,,,,,,,,,,,,,,,,,,,,,,,,,,,,,,,,,,,,,,,,,,,,001,2026-06-16_21h38.16.624,Teamprojekt,,2025.1.0,89.98097805971082,2026-06-16 21h38.20.045940 +0200,
1,0,1,,,,,,1,0,1,0,,,,,,,,,0.8125425000325777,,0.8017470000195317,0.8125425000325777,1.6000981000252068,1.6118903000024147,,,,,,,,,,,,,,,,,,,,,,,,,,,,,,,,,,,,,,,,,,,,,,,,,,,,,001,2026-06-16_21h38.16.624,Teamprojekt,,2025.1.0,89.98097805971082,2026-06-16 21h38.20.045940 +0200,
2,0,2,,,,,,2,0,2,0,,,,,,,,,1.6118903000024147,,1.6002682999824174,1.6118903000024147,2.400117199984379,,,,,,,,,,,,,,,,,,,,,,,,,,,,,,,,,,,,,,,,,,,,,,,,,,,,,,001,2026-06-16_21h38.16.624,Teamprojekt,,2025.1.0,89.98097805971082,2026-06-16 21h38.20.045940 +0200,
3,0,3,,,,,,3,0,3,0,,,,,,,,,2.410828099993523,,2.4002824000199325,2.410828099993523,3.2012265999801457,,,,,,,,,,,,,,,,,,,,,,,,,,,,,,,,,,,,,,,,,,,,,,,,,,,,,,001,2026-06-16_21h38.16.624,Teamprojekt,,2025.1.0,89.98097805971082,2026-06-16 21h38.20.045940 +0200,
0,0,0,,,,,,,,,,0,0,0,0,,,,,3.2112328999792226,,3.2016542000346817,3.2112328999792226,3.9998337000142783,4.011140900023747,,,,,,,,,,,,,,,,,,,,,,,,,,,,,,,,,,,,,,,,,,,,,,,,,,,,,001,2026-06-16_21h38.16.624,Teamprojekt,,2025.1.0,89.98097805971082,2026-06-16 21h38.20.045940 +0200,
1,0,1,,,,,,,,,,1,0,1,0,,,,,4.011140900023747,,3.999963400012348,4.011140900023747,4.800732699979562,,,,,,,,,,,,,,,,,,,,,,,,,,,,,,,,,,,,,,,,,,,,,,,,,,,,,,001,2026-06-16_21h38.16.624,Teamprojekt,,2025.1.0,89.98097805971082,2026-06-16 21h38.20.045940 +0200,
2,0,2,,,,,,,,,,2,0,2,0,,,,,4.811451799992938,,4.800947199983057,4.811451799992938,5.600937600014731,,,,,,,,,,,,,,,,,,,,,,,,,,,,,,,,,,,,,,,,,,,,,,,,,,,,,,001,2026-06-16_21h38.16.624,Teamprojekt,,2025.1.0,89.98097805971082,2026-06-16 21h38.20.045940 +0200,
3,0,3,,,,,,,,,,3,0,3,0,,,,,5.610664699983317,,5.601106600021012,5.610664699983317,6.399757999985013,6.410651699989103,,,,,,,,,,,,,,,,,,,,,,,,,,,,,,,,,,,,,,,,,,,,,,,,,,,,,001,2026-06-16_21h38.16.624,Teamprojekt,,2025.1.0,89.98097805971082,2026-06-16 21h38.20.045940 +0200,
,,,,,,,,,,,,,,,,,,,,,,,,,,6.399837500008289,6.410651699989103,6.900256699998863,10.84973890002584,space,3.9380000000237487,None,,,,,,,,,,,,,,,,,,,,,,,,,,,,,,,,,,,,,,,,,,,,,,001,2026-06-16_21h38.16.624,Teamprojekt,,2025.1.0,89.98097805971082,2026-06-16 21h38.20.045940 +0200,
0,0,0,Standard,0.16,f,0.6077618999988772,None,,,,,,,,,0,0,0,11,10.868992000003345,,13.625481199997012,13.636352800007444,14.42557239998132,,,,,,,,,#F781BF,LR,10.861252000031527,10.868992000003345,10.868992000003345,10.868992000003345,10.868992000003345,10.868992000003345,10.868992000003345,10.868992000003345,11.86938759998884,11.86938759998884,11.86938759998884,11.86938759998884,11.86938759998884,11.86938759998884,11.86938759998884,11.858559200016316,11.858598800026812,11.86938759998884,12.024975100008305,12.01366960001178,12.016644800023641,12.024975100008305,12.024975100008305,12.024975100008305,12.024975100008305,12.024975100008305,12.024975100008305,12.024975100008305,13.014154999982566,13.026032700028736,13.026032700028736,13.026032700028736,13.026032700028736,13.026032700028736,13.026032700028736,13.625419699994382,f,0.6077618999988772,None,,,,,001,2026-06-16_21h38.16.624,Teamprojekt,,2025.1.0,89.98097805971082,2026-06-16 21h38.20.045940 +0200,
1,1,0,Barrier,0.16,j,0.30686100001912564,None,,,,,,,,,0,1,1,7,14.435537600016687,,16.891976799990516,16.90312829997856,17.692267899983563,,,,,,,,,#E41A1C,LR,14.428973000030965,14.435537600016687,14.435537600016687,14.435537600016687,14.435537600016687,14.435537600016687,14.435537600016687,14.435537600016687,15.435693199979141,15.435693199979141,15.435693199979141,15.435693199979141,15.435693199979141,15.435693199979141,15.435693199979141,15.425421299994923,15.425457899982575,15.435693199979141,15.591473700013012,15.580134699994233,15.58368680003332,15.591473700013012,15.591473700013012,15.591473700013012,15.591473700013012,15.591473700013012,15.591473700013012,15.591473700013012,16.580981699982658,16.591049699985888,16.591049699985888,16.591049699985888,16.591049699985888,16.591049699985888,16.591049699985888,16.8919149999856,j,0.30686100001912564,None,,,,,001,2026-06-16_21h38.16.624,Teamprojekt,,2025.1.0,89.98097805971082,2026-06-16 21h38.20.045940 +0200,
2,2,0,Portal,0,j,0.2646085000014864,None,,,,,,,,,0,2,2,0,17.702575900009833,,19.9585950000328,19.96874680003384,20.7586694000056,,,,,,,,,#984EA3,LR,17.695823799993377,17.702575900009833,17.702575900009833,17.702575900009833,17.702575900009833,17.702575900009833,17.702575900009833,17.702575900009833,18.703703499981202,18.703703499981202,18.703703499981202,18.703703499981202,18.703703499981202,18.703703499981202,18.703703499981202,18.691355100017972,18.69139599998016,18.703703499981202,18.703703499981202,18.691491200006567,18.69523220002884,18.703703499981202,18.703703499981202,18.703703499981202,18.703703499981202,18.703703499981202,18.703703499981202,18.703703499981202,19.691092499997467,19.70319670002209,19.70319670002209,19.70319670002209,19.70319670002209,19.70319670002209,19.70319670002209,19.95848010003101,j,0.2646085000014864,None,,,,,001,2026-06-16_21h38.16.624,Teamprojekt,,2025.1.0,89.98097805971082,2026-06-16 21h38.20.045940 +0200,
3,3,0,Standard,0.02,f,0.25888650002889335,None,,,,,,,,,0,3,3,9,20.768530000001192,,23.046715800010134,23.057576999999583,23.846383800031617,23.85808169998927,,,,,,,,#E41A1C,LR,20.76164240000071,20.768530000001192,20.768530000001192,20.768530000001192,20.768530000001192,20.768530000001192,20.768530000001192,20.768530000001192,21.76947990001645,21.76947990001645,21.76947990001645,21.76947990001645,21.76947990001645,21.76947990001645,21.76947990001645,21.75784279999789,21.757892000023276,21.76947990001645,21.790726299979724,21.780808400013484,21.78399890003493,21.790726299979724,21.790726299979724,21.790726299979724,21.790726299979724,21.790726299979724,21.790726299979724,21.790726299979724,22.779668400005903,22.791614199988544,22.791614199988544,22.791614199988544,22.791614199988544,22.791614199988544,22.791614199988544,23.046649100026116,f,0.25888650002889335,None,,,,,001,2026-06-16_21h38.16.624,Teamprojekt,,2025.1.0,89.98097805971082,2026-06-16 21h38.20.045940 +0200,
4,4,0,Portal,0.02,j,0.3268102000001818,None,,,,,,,,,0,4,4,1,23.85808169998927,,26.201946699991822,26.212978600000497,27.00274600001285,,,,,,,,,#F781BF,LR,23.84941850003088,23.85808169998927,23.85808169998927,23.85808169998927,23.85808169998927,23.85808169998927,23.85808169998927,23.85808169998927,24.858202799980063,24.858202799980063,24.858202799980063,24.858202799980063,24.858202799980063,24.858202799980063,24.858202799980063,24.847432199981995,24.84747789998073,24.858202799980063,24.87983049999457,24.868949500028975,24.87241459998768,24.87983049999457,24.87983049999457,24.87983049999457,24.87983049999457,24.87983049999457,24.87983049999457,24.87983049999457,25.868943299981765,25.880397700006142,25.880397700006142,25.880397700006142,25.880397700006142,25.880397700006142,25.880397700006142,26.201886800001375,j,0.3268102000001818,None,,,,,001,2026-06-16_21h38.16.624,Teamprojekt,,2025.1.0,89.98097805971082,2026-06-16 21h38.20.045940 +0200,
5,5,0,Standard,0.08,f,0.3110585999675095,None,,,,,,,,,0,5,5,10,27.013692100008484,,29.392845300026238,29.401622399978805,30.190755099989474,30.201890700031072,,,,,,,,#377EB8,RL,27.006128799985163,27.013692100008484,27.013692100008484,27.013692100008484,27.013692100008484,27.013692100008484,27.013692100008484,27.013692100008484,28.013800100015942,28.013800100015942,28.013800100015942,28.013800100015942,28.013800100015942,28.013800100015942,28.013800100015942,28.002248600008897,28.002299699990544,28.013800100015942,28.090376599982847,28.080488400009926,28.08443480002461,28.090376599982847,28.090376599982847,28.090376599982847,28.090376599982847,28.090376599982847,28.090376599982847,28.090376599982847,29.079861300007906,29.090500799997244,29.090500799997244,29.090500799997244,29.090500799997244,29.090500799997244,29.090500799997244,29.392714100016747,f,0.3110585999675095,None,,,,,001,2026-06-16_21h38.16.624,Teamprojekt,,2025.1.0,89.98097805971082,2026-06-16 21h38.20.045940 +0200,
6,6,0,Barrier,0.02,j,0.37987950001843274,None,,,,,,,,,0,6,6,5,30.201890700031072,,32.60270590003347,32.61256550002145,33.402506300015375,33.413329100003466,,,,,,,,#F781BF,LR,30.193608700006735,30.201890700031072,30.201890700031072,30.201890700031072,30.201890700031072,30.201890700031072,30.201890700031072,30.201890700031072,31.202405199990608,31.202405199990608,31.202405199990608,31.202405199990608,31.202405199990608,31.202405199990608,31.202405199990608,31.190961299987976,31.191009400004987,31.202405199990608,31.22459820000222,31.21329380001407,31.217489700007718,31.22459820000222,31.22459820000222,31.22459820000222,31.22459820000222,31.22459820000222,31.22459820000222,31.22459820000222,32.21342899999581,32.22357820003526,32.22357820003526,32.22357820003526,32.22357820003526,32.22357820003526,32.22357820003526,32.60261459997855,j,0.37987950001843274,None,,,,,001,2026-06-16_21h38.16.624,Teamprojekt,,2025.1.0,89.98097805971082,2026-06-16 21h38.20.045940 +0200,
7,7,0,Barrier,0.08,f,0.2844846000079997,None,,,,,,,,,0,7,7,6,33.413329100003466,,35.768121999979485,35.77991069998825,36.5687397000147,,,,,,,,,#4DAF4A,LR,33.406143500003964,33.413329100003466,33.413329100003466,33.413329100003466,33.413329100003466,33.413329100003466,33.413329100003466,33.413329100003466,34.41232509998372,34.41232509998372,34.41232509998372,34.41232509998372,34.41232509998372,34.41232509998372,34.41232509998372,34.40257640002528,34.40263959998265,34.41232509998372,34.49053389998153,34.47914260003017,34.482848200015724,34.49053389998153,34.49053389998153,34.49053389998153,34.49053389998153,34.49053389998153,34.49053389998153,34.49053389998153,35.47894719999749,35.49051239999244,35.49051239999244,35.49051239999244,35.49051239999244,35.49051239999244,35.49051239999244,35.768063199997414,f,0.2844846000079997,None,,,,,001,2026-06-16_21h38.16.624,Teamprojekt,,2025.1.0,89.98097805971082,2026-06-16 21h38.20.045940 +0200,
8,8,0,Portal,0.08,j,0.25763990002451465,None,,,,,,,,,0,8,8,2,36.57883860002039,,38.91365240002051,38.924231500015594,39.71320499997819,39.723747199983336,,,,,,,,#1B9E77,RL,36.57167289999779,36.57883860002039,36.57883860002039,36.57883860002039,36.57883860002039,36.57883860002039,36.57883860002039,36.57883860002039,37.57899110001745,37.57899110001745,37.57899110001745,37.57899110001745,37.57899110001745,37.57899110001745,37.57899110001745,37.56901869998546,37.56906940002227,37.57899110001745,37.65761070000008,37.64667709998321,37.65039159997832,37.65761070000008,37.65761070000008,37.65761070000008,37.65761070000008,37.65761070000008,37.65761070000008,37.65761070000008,38.646105199994054,38.65653799998108,38.65653799998108,38.65653799998108,38.65653799998108,38.65653799998108,38.65653799998108,38.91355900000781,j,0.25763990002451465,None,,,,,001,2026-06-16_21h38.16.624,Teamprojekt,,2025.1.0,89.98097805971082,2026-06-16 21h38.20.045940 +0200,
9,9,0,Barrier,0,f,0.3497053000028245,None,,,,,,,,,0,9,9,4,39.723747199983336,,42.06899669999257,42.078600400011055,42.86784120002994,42.87888909998583,,,,,,,,#1B9E77,RL,39.716560999979265,39.723747199983336,39.723747199983336,39.723747199983336,39.723747199983336,39.723747199983336,39.723747199983336,39.723747199983336,40.724317600019276,40.724317600019276,40.724317600019276,40.724317600019276,40.724317600019276,40.724317600019276,40.724317600019276,40.71342200000072,40.713463100022636,40.724317600019276,40.724317600019276,40.71356940001715,40.71740080002928,40.724317600019276,40.724317600019276,40.724317600019276,40.724317600019276,40.724317600019276,40.724317600019276,40.724317600019276,41.71332729997812,41.7232534000068,41.7232534000068,41.7232534000068,41.7232534000068,41.7232534000068,41.7232534000068,42.068900000012945,f,0.3497053000028245,None,,,,,001,2026-06-16_21h38.16.624,Teamprojekt,,2025.1.0,89.98097805971082,2026-06-16 21h38.20.045940 +0200,
10,10,0,Portal,0.16,j,0.8587344000115991,None,,,,,,,,,0,10,10,3,42.87888909998583,,45.8913215000066,45.900685300002806,46.69079480000073,46.701642200001515,,,,,,,,#E41A1C,RL,42.87111619999632,42.87888909998583,42.87888909998583,42.87888909998583,42.87888909998583,42.87888909998583,42.87888909998583,42.87888909998583,43.87953380000545,43.87953380000545,43.87953380000545,43.87953380000545,43.87953380000545,43.87953380000545,43.87953380000545,43.8680280999979,43.86806180002168,43.87953380000545,44.0392550000106,44.024958900001366,44.03030360001139,44.0392550000106,44.0392550000106,44.0392550000106,44.0392550000106,44.0392550000106,44.0392550000106,44.0392550000106,45.02385050000157,45.034926099993754,45.034926099993754,45.034926099993754,45.034926099993754,45.034926099993754,45.034926099993754,45.89122160000261,j,0.8587344000115991,None,,,,,001,2026-06-16_21h38.16.624,Teamprojekt,,2025.1.0,89.98097805971082,2026-06-16 21h38.20.045940 +0200,
11,11,0,Standard,0,f,0.5184654999757186,None,,,,,,,,,0,11,11,8,46.701642200001515,,49.21306779998122,49.223626299994066,50.01270989998011,50.02257550001377,,,,,,,,#A65628,RL,46.694250000000466,46.701642200001515,46.701642200001515,46.701642200001515,46.701642200001515,46.701642200001515,46.701642200001515,46.701642200001515,47.70205409999471,47.70205409999471,47.70205409999471,47.70205409999471,47.70205409999471,47.70205409999471,47.70205409999471,47.69068350002635,47.690732799994294,47.70205409999471,47.70205409999471,47.69084270001622,47.69435180001892,47.70205409999471,47.70205409999471,47.70205409999471,47.70205409999471,47.70205409999471,47.70205409999471,47.70205409999471,48.68945800000802,48.70047129999148,48.70047129999148,48.70047129999148,48.70047129999148,48.70047129999148,48.70047129999148,49.212954099988565,f,0.5184654999757186,None,,,,,001,2026-06-16_21h38.16.624,Teamprojekt,,2025.1.0,89.98097805971082,2026-06-16 21h38.20.045940 +0200,
,,,,,,,,,,,,,,,,,,,,,,,,,,,,,,,,,,,,,,,,,,,,,,,,,,,,,,,,,,,,,,,,,,,,,,,,,,50.013005600019824,50.02257550001377,50.512666399998125,,,,,,,,,
